
trial	choice1	rts1	stim1ons_sl	stim1ons_ms	choice1ons_sl	choice1ons_ms	state	choice2	rts2	stim2ons_sl	stim2ons_ms	choice2ons_sl	choice2ons_ms	SC_ID	won

1	1	0.441486	332.514800	332.508900	777.016900	777.012800	3	2	2.109761	1781.508300	1781.501300	3897.008900	3897.005800	CCNP001339	1
2	1	0.415499	6404.746200	6404.740900	6833.031400	6833.028100	2	2	2.402252	7834.705200	7834.698400	10240.830800	10240.827600	CCNP001339	0
3	1	0.202052	12745.595700	12745.590300	12952.795800	12952.792600	2	1	1.139361	13954.256500	13954.234700	15096.922600	15096.919500	CCNP001339	0
4	2	0.255209	17603.914900	17603.908300	17872.697100	17872.693600	3	2	0.834449	18874.162000	18874.154100	19712.639900	19712.636400	CCNP001339	0
5	2	0.166600	22219.104800	22219.099400	22402.312800	22402.308500	3	1	0.359868	23405.522600	23405.517100	23768.945300	23768.941700	CCNP001339	1
6	2	0.636388	26276.102800	26276.097100	26920.835500	26920.832400	2	1	0.923733	27922.109700	27922.103800	28849.386500	28849.383100	CCNP001339	1
7	2	0.280867	31354.115900	31354.110100	31648.719500	31648.715700	3	1	0.364140	32649.644800	32649.639700	33017.247300	33017.243400	CCNP001339	1
8	2	0.274845	35521.262400	35521.257200	35809.141200	35809.137800	3	1	0.451385	36810.403100	36810.398100	37265.192200	37265.189000	CCNP001339	1
9	2	0.232120	39770.001700	39769.996400	40017.090200	40017.085300	3	1	0.371316	41018.158600	41018.153600	41393.081200	41393.077900	CCNP001339	1
10	2	0.204280	43896.918600	43896.913100	44105.176600	44105.173200	3	1	0.435333	45106.076500	45106.071800	45545.013300	45545.009800	CCNP001339	1
11	2	0.275631	48048.883900	48048.878000	48329.288700	48329.285400	2	1	1.003756	49330.230300	49330.225400	50337.557400	50337.554000	CCNP001339	0
12	2	0.358281	52841.222000	52841.204500	53209.126200	53209.122900	3	1	0.483552	54210.101000	54210.096400	54697.019100	54697.015600	CCNP001339	1
13	2	0.423481	57201.825700	57201.820000	57640.836100	57640.832800	3	1	0.371169	58641.745400	58641.741100	59016.809500	59016.790900	CCNP001339	1
14	2	0.211165	61520.395400	61520.386300	61745.283500	61745.280000	2	2	1.442904	62746.601200	62746.596000	64192.930900	64192.927700	CCNP001339	1
15	2	0.652351	66696.574400	66696.568900	67353.140600	67353.137200	2	2	0.715156	68354.234000	68354.228900	69072.750100	69072.747000	CCNP001339	1
16	2	0.320280	71576.641800	71576.636200	71904.704600	71904.701000	2	2	0.667875	72905.665700	72905.660600	73577.007600	73577.004500	CCNP001339	1
17	2	0.187034	76080.745900	76080.738700	76272.709800	76272.706200	3	1	0.628164	77273.665200	77273.647400	77905.099200	77905.095900	CCNP001339	0
18	2	0.407516	80408.970800	80408.964500	80825.055000	80825.051600	3	1	0.427505	81826.038700	81826.033200	82257.190600	82257.187200	CCNP001339	1
19	2	0.202107	84760.893000	84760.887200	84969.550000	84969.546600	2	2	1.178784	85970.539500	85970.534700	87152.751800	87152.748700	CCNP001339	0
20	2	0.069713	89656.507500	89656.500600	89737.344200	89737.340800	3	1	0.379146	90738.284500	90738.266400	91120.851500	91120.848400	CCNP001339	1
21	2	0.142980	93624.610800	93624.595100	93776.988500	93776.985300	3	1	0.298726	94777.973100	94777.968400	95080.742900	95080.739000	CCNP001339	1
22	2	0.280492	97584.976400	97584.967600	97881.290300	97881.286900	3	1	0.419515	98882.298300	98882.280400	99305.382600	99305.379200	CCNP001339	1
23	2	0.231446	101809.165500	101809.159600	102048.943200	102048.940000	2	1	0.298996	103050.019600	103050.005000	103352.700100	103352.696600	CCNP001339	1
24	2	0.332664	105856.412100	105856.405900	106200.808500	106200.804200	3	1	0.539743	107201.770800	107201.765200	107744.995700	107744.992600	CCNP001339	0
25	2	0.171161	110248.909000	110248.902400	110425.028400	110425.025100	3	1	0.507437	111426.047800	111426.043000	111936.854300	111936.850800	CCNP001339	1
26	2	0.238848	114440.811100	114440.804300	114689.577300	114689.574000	3	1	0.435479	115690.587300	115690.581800	116129.284300	116129.281000	CCNP001339	1
27	2	0.195675	118633.632800	118633.625800	118832.841900	118832.838500	3	1	0.411179	119834.072600	119834.067800	120248.953300	120248.950200	CCNP001339	1
28	2	0.248682	122753.319600	122753.314300	123017.349600	123017.345400	3	1	0.354293	124018.344000	124018.326300	124376.842200	124376.838300	CCNP001339	1
29	2	0.147105	126880.745000	126880.738900	127033.245300	127033.240700	2	1	0.330957	128034.448200	128034.442200	128368.921400	128368.918300	CCNP001339	0
30	2	0.444317	130872.696500	130872.690300	131328.755900	131328.752900	2	2	0.890909	132329.916800	132329.911500	133224.741500	133224.737800	CCNP001339	1
31	2	0.257860	135728.667600	135728.662100	135992.699800	135992.696200	3	1	0.659469	136993.811400	136993.802600	137656.693600	137656.690400	CCNP001339	1
32	2	0.241823	140160.567800	140160.562600	140409.352200	140409.348700	2	1	0.435250	141410.528000	141410.522800	141849.247900	141849.244600	CCNP001339	0
33	2	0.401922	144353.576700	144353.571200	144769.424700	144769.421200	3	1	0.962842	145770.565100	145770.559500	146736.846500	146736.842800	CCNP001339	1
34	2	0.165902	149240.647900	149240.641900	149417.138700	149417.134500	2	2	0.666091	150418.270600	150418.264900	151088.817600	151088.813200	CCNP001339	1
35	2	0.112280	153592.546200	153592.539500	153713.428200	153713.424800	3	1	1.058885	154714.557400	154714.552900	155777.093900	155777.090800	CCNP001339	1
36	2	0.290747	158281.351600	158281.336900	158576.531400	158576.527500	3	1	0.787019	159577.666800	159577.661000	160368.947500	160368.943200	CCNP001339	1
37	2	0.205181	162872.807300	162872.801200	163089.439000	163089.435600	3	1	0.755006	164090.553900	164090.545800	164849.042500	164849.039100	CCNP001339	1
38	2	0.177206	167353.641400	167353.636400	167545.126300	167545.122700	3	1	0.427045	168546.266500	168546.261300	168976.747700	168976.744400	CCNP001339	0
39	2	0.436487	171480.435200	171480.429800	171920.869400	171920.866300	3	1	0.531346	172921.989300	172921.984100	173456.717700	173456.714500	CCNP001339	1
40	2	0.129333	175960.341200	175960.335900	176097.291900	176097.288400	3	1	0.650867	177098.404600	177098.399400	177752.961800	177752.958500	CCNP001339	1
41	2	0.492925	180256.599500	180256.594000	180760.835500	180760.832300	2	2	0.962903	181762.055500	181762.050100	182728.753500	182728.749700	CCNP001339	1
42	2	0.371743	185232.233400	185232.222900	185609.031100	185609.027900	3	1	0.619469	186610.136900	186610.131500	187232.792600	187232.789300	CCNP001339	1
43	2	0.417828	189736.793400	189736.787200	190168.974100	190168.970900	3	1	0.803555	191170.077800	191170.073000	191976.990000	191976.986400	CCNP001339	1
44	2	0.412202	194480.614300	194480.608900	194897.016000	194897.012700	3	1	0.643095	195898.256600	195898.251200	196544.887400	196544.884300	CCNP001339	1
45	2	0.427457	199048.497300	199048.492200	199481.488600	199481.485500	3	1	0.698036	200482.597000	200482.591500	201184.662600	201184.659200	CCNP001339	1
46	2	0.380245	203688.454900	203688.449100	204081.235800	204081.232300	3	1	0.714360	205082.471500	205082.466400	205800.815100	205800.811700	CCNP001339	0
47	2	0.451620	208306.981100	208306.975400	208769.206800	208769.203400	3	1	0.514673	209770.303600	209770.297800	210288.652000	210288.648200	CCNP001339	0
48	2	0.248254	212792.383400	212792.378000	213049.365000	213049.357300	3	1	0.427122	214050.501400	214050.494700	214481.072500	214481.069300	CCNP001339	0
49	2	0.232032	216985.115200	216985.109700	217233.288900	217233.285600	3	2	0.467321	218234.620000	218234.614600	218705.381000	218705.377700	CCNP001339	1
50	2	0.415138	221209.522000	221209.516000	221632.718400	221632.715200	2	2	0.771664	222633.869800	222633.863800	223409.023600	223409.020300	CCNP001339	1
51	1	1.123105	225913.117100	225913.104800	227040.825400	227040.822300	2	2	0.475647	228042.024900	228042.019400	228520.996600	228520.993500	CCNP001339	0
52	1	0.229660	231024.710000	231024.704600	231264.761000	231264.757200	2	2	0.490729	232266.002900	232265.997700	232760.670200	232760.666400	CCNP001339	1
53	1	0.188879	235264.313400	235264.308400	235457.221300	235457.217900	2	2	0.466899	236458.420200	236458.414300	236928.900200	236928.897000	CCNP001339	1
54	1	0.355518	239432.852900	239432.847000	239792.836600	239792.833200	2	2	0.459754	240794.056500	240794.050800	241257.096200	241257.092800	CCNP001339	1
55	1	0.265120	243760.770000	243760.764200	244032.909100	244032.905900	3	2	0.484124	245034.256200	245034.248700	245522.039000	245522.035900	CCNP001339	0
56	1	0.414220	248025.870100	248025.864800	248448.791200	248448.788000	2	2	0.715532	249450.086300	249450.080500	250168.935000	250168.927800	CCNP001339	0
57	1	0.283728	252672.552600	252672.547500	252969.086900	252969.082700	3	1	0.851224	253970.286300	253970.281200	254824.933600	254824.930300	CCNP001339	0
58	1	0.739037	257328.491300	257328.486300	258073.282500	258073.279100	3	2	1.418780	259074.566900	259074.547600	260497.035700	260497.032500	CCNP001339	1
59	1	0.631482	263001.002600	263000.996700	263649.273300	263649.270000	2	2	0.547265	264650.664700	264650.658200	265201.295000	265201.291400	CCNP001339	0
60	1	0.323408	267705.136400	267705.131100	268041.152400	268041.149300	2	2	0.699167	269042.384300	269042.378400	269744.894900	269744.891700	CCNP001339	1
61	1	0.730582	272248.736600	272248.731500	272984.782600	272984.779000	2	2	0.739676	273986.014700	273986.008800	274728.980600	274728.977500	CCNP001339	1
62	1	0.307401	277232.899000	277232.893600	277544.764000	277544.760800	2	2	0.515462	278546.036800	278546.031000	279064.908400	279064.905300	CCNP001339	0
63	1	0.320453	281568.632400	281568.626900	281904.926500	281904.923100	3	2	0.371307	282906.208300	282906.202800	283280.914600	283280.911400	CCNP001339	0
64	2	0.559800	285784.864600	285784.859000	286361.065500	286361.062400	3	1	0.403098	287362.380000	287362.371900	287768.837200	287768.834000	CCNP001339	1
65	2	0.348650	290272.358400	290272.352900	290633.347900	290633.344400	3	1	0.394561	291634.525700	291634.518900	292032.847100	292032.843900	CCNP001339	0
66	2	0.210149	294537.110900	294537.105700	294761.265100	294761.261600	3	1	0.363203	295762.186100	295762.181000	296128.851900	296128.848700	CCNP001339	1
67	2	1.252760	299856.811900	299856.805600	301112.792700	301112.789100	3	1	0.531195	302113.793700	302113.788800	302648.808300	302648.792100	CCNP001339	0
68	2	0.321246	305152.207700	305152.202500	305489.271400	305489.268200	3	2	0.515428	306490.162600	306490.157700	307008.943200	307008.940000	CCNP001339	0
69	1	0.259386	309512.450700	309512.444800	309777.060300	309777.057100	3	1	0.884717	310778.042000	310778.036500	311666.270600	311666.267100	CCNP001339	1
70	1	0.471598	314170.281900	314170.276700	314656.760600	314656.756600	3	1	0.923902	315657.689100	315657.684200	316584.921700	316584.918500	CCNP001339	1
71	2	0.267889	319088.420700	319088.415400	319368.997900	319368.994800	3	1	0.419603	320369.887500	320369.882800	320792.981400	320792.978100	CCNP001339	1
72	2	0.292024	323296.341200	323296.335100	323593.300400	323593.296900	3	1	0.579260	324594.230700	324594.225900	325177.001600	325176.998200	CCNP001339	0
73	1	0.283945	327680.504800	327680.499600	327969.548100	327969.544700	2	2	2.122970	328970.456800	328970.452200	331096.991400	331096.988200	CCNP001339	1
74	1	0.278850	333601.363700	333601.357800	333896.883900	333896.880600	2	2	0.435627	334897.838500	334897.833500	335336.923700	335336.920400	CCNP001339	0
75	1	0.277862	337841.152900	337841.133900	338129.069900	338129.066800	2	2	0.515468	339130.199900	339130.194700	339649.125900	339649.122600	CCNP001339	1
76	1	0.041068	342153.102000	342153.080000	342209.060100	342209.056800	2	2	0.476054	343209.989700	343209.985000	343689.343600	343689.340100	CCNP001339	1
77	1	0.240247	346192.693500	346192.688200	346441.501100	346441.497700	2	2	0.555401	347442.413200	347442.408400	348001.208600	348001.204800	CCNP001339	1
78	1	0.418982	350504.604500	350504.599200	350937.105900	350937.102500	2	2	0.499371	351938.033600	351938.029000	352440.943100	352440.939900	CCNP001339	1
79	1	0.458117	354944.373500	354944.368300	355409.400600	355409.397100	2	2	0.363358	356410.346200	356410.341200	356777.038700	356777.035100	CCNP001339	1
80	1	0.460598	359280.851500	359280.844300	359745.537500	359745.534200	2	2	0.435110	360746.462600	360746.457300	361185.136700	361185.133400	CCNP001339	0
81	2	0.099646	363688.590700	363688.585400	363800.935600	363800.931900	2	2	0.891761	364801.852200	364801.847400	365697.185900	365697.182700	CCNP001339	1
82	1	0.020390	368201.091700	368201.085800	368225.079700	368225.076400	2	2	0.403809	369226.005700	369226.000300	369633.423800	369633.420300	CCNP001339	1
83	1	0.857133	372137.395700	372137.390800	373008.708300	373008.704600	3	1	1.011998	374009.621200	374009.616500	375024.871500	375024.868100	CCNP001339	0
84	1	0.034918	377528.449300	377528.444200	377569.589100	377569.585500	3	1	0.691355	378570.544400	378570.539800	379265.436600	379265.433100	CCNP001339	0
85	1	0.183658	381769.360800	381769.355200	381968.444700	381968.440400	2	2	0.596087	382969.360200	382969.355300	383568.872800	383568.869500	CCNP001339	1
86	1	0.332279	386072.495600	386072.488700	386416.893100	386416.875100	2	2	0.442400	387417.880600	387417.875700	387864.798600	387864.795000	CCNP001339	0
87	1	0.312095	390368.727800	390368.722000	390696.902800	390696.899700	2	2	0.395066	391697.810700	391697.806000	392096.858400	392096.854800	CCNP001339	1
88	1	0.159459	394601.141000	394601.134100	394777.385500	394777.382100	3	2	1.539678	395778.280200	395778.275100	397321.598100	397321.594700	CCNP001339	1
89	1	0.478473	399824.940600	399824.935300	400313.055000	400313.051900	2	2	0.819450	401314.088100	401314.083400	402137.109400	402137.106400	CCNP001339	1
90	1	0.356827	404640.498600	404640.493300	405008.829000	405008.825400	3	2	0.387028	406009.734100	406009.729400	406400.900700	406400.896400	CCNP001339	1
91	1	0.202068	408904.269200	408904.263900	409120.891900	409120.888200	2	2	0.578942	410121.886900	410121.880500	410704.679100	410704.675600	CCNP001339	0
92	1	0.055510	413208.181400	413208.175500	413273.529000	413273.525700	2	2	0.507492	414274.438300	414274.433500	414785.845300	414785.841100	CCNP001339	1
93	1	0.258995	417289.385000	417289.377600	417560.771300	417560.767700	3	2	1.091270	418561.631800	418561.626600	419657.166400	419657.162100	CCNP001339	1
94	1	0.320950	422160.930200	422160.923700	422488.769200	422488.765500	2	2	0.428046	423489.652900	423489.648100	423921.177500	423921.174400	CCNP001339	1
95	1	0.358348	426424.671700	426424.666400	426793.240700	426793.237400	3	2	0.491304	427794.161000	427794.156400	428288.923600	428288.920400	CCNP001339	0
96	1	0.239983	430792.507900	430792.502600	431041.377200	431041.373800	3	1	0.763411	432042.354100	432042.349300	432809.127100	432809.123600	CCNP001339	0
97	1	0.219857	435312.683400	435312.678300	435537.676900	435537.673400	2	2	0.539115	436538.568800	436538.564000	437081.042000	437081.039000	CCNP001339	0
98	1	0.080107	439584.701500	439584.694600	439681.402500	439681.399100	3	1	0.539172	440682.330700	440682.325900	441225.058000	441225.054900	CCNP001339	0
99	1	0.210328	443728.487200	443728.482100	443945.042800	443945.039700	3	2	0.451965	444945.995500	444945.990500	445401.520900	445401.517100	CCNP001339	0
100	1	0.491171	447905.151500	447905.143900	448409.129800	448409.126600	3	2	1.059495	449410.062100	449410.057400	450472.909600	450472.906400	CCNP001339	1
101	1	1.416055	452976.346600	452976.341200	454401.163900	454401.160600	2	2	0.355139	455402.106100	455402.101100	455760.878100	455760.874900	CCNP001339	0
102	1	0.244833	458264.296600	458264.291200	458513.187100	458513.183700	2	2	2.467131	459514.134000	459514.129000	461985.207100	461985.203500	CCNP001339	1
103	1	0.260060	464488.786300	464488.781000	464761.426000	464761.422600	2	2	0.539251	465762.365800	465762.361000	466305.466700	466305.463400	CCNP001339	1
104	1	0.214617	468808.903400	468808.898000	469032.885600	469032.881800	2	2	0.547409	470034.210900	470034.204100	470585.080500	470585.077200	CCNP001339	0
105	1	0.076029	473088.542400	473088.537600	473177.333300	473177.329900	2	1	0.451256	474178.269600	474178.264400	474632.961100	474632.957800	CCNP001339	1
106	1	0.313269	477137.241400	477137.236500	477465.021200	477465.018100	2	1	0.491627	478465.964800	478465.955900	478961.307600	478961.304100	CCNP001339	1
107	1	0.258613	481465.843900	481465.825100	481728.819100	481728.815800	2	1	0.460488	482729.703000	482729.698200	483193.473100	483193.469600	CCNP001339	0
108	1	0.251728	485697.396500	485697.391100	485953.005300	485953.001800	2	1	0.539790	486953.941700	486953.937100	487497.110600	487497.107400	CCNP001339	1
109	1	0.214853	490001.671900	490001.666300	490232.972600	490232.969500	3	2	1.794385	491234.414200	491234.408200	493032.917700	493032.914500	CCNP001339	0
110	1	2.082106	495537.416200	495537.410800	497633.466300	497633.463000	2	1	1.698336	498634.813500	498634.805400	500336.906800	500336.903800	CCNP001339	1
111	1	0.508886	502840.643600	502840.637900	503360.789400	503360.785900	2	1	0.411801	504361.688700	504361.684300	504776.928600	504776.925400	CCNP001339	1
112	1	0.228819	507280.380500	507280.374900	507513.406500	507513.403300	2	1	0.427307	508514.253600	508514.248400	508945.081400	508945.078400	CCNP001339	0
113	1	0.186834	511449.737900	511449.732800	511641.128400	511641.125300	3	1	0.259963	512642.043100	512642.037800	512905.322800	512905.319500	CCNP001339	1
114	1	0.255148	515409.338200	515409.332900	515673.186600	515673.183400	3	1	0.755843	516674.123900	516674.119200	517433.288300	517433.285100	CCNP001339	1
115	1	0.226007	519938.103600	519938.098000	520177.672900	520177.669500	2	1	0.515010	521178.607100	521178.602100	521697.058700	521697.055600	CCNP001339	0
116	1	0.219365	524200.968100	524200.951700	524425.192900	524425.188700	2	1	0.483535	525426.102300	525426.097600	525912.945000	525912.941800	CCNP001339	0
117	1	0.254579	528418.125100	528418.117100	528689.464100	528689.460600	2	2	0.619498	529690.379000	529690.373900	530313.164400	530313.161000	CCNP001339	0
118	2	0.980132	532816.934800	532816.929500	533801.495400	533801.492100	3	2	0.548002	534802.448300	534802.443300	535353.818900	535353.815700	CCNP001339	0
119	2	0.212107	537858.272500	537858.267100	538080.654900	538080.651200	3	1	0.571998	539081.572400	539081.567300	539657.069600	539657.066500	CCNP001339	1
120	2	0.304788	542161.601700	542161.595900	542472.949400	542472.946300	3	1	0.619884	543473.849100	543473.843800	544097.050100	544097.047000	CCNP001339	0
121	2	0.276586	546600.835900	546600.826900	546881.086900	546881.083300	3	1	0.803475	547882.033100	547882.028200	548689.110000	548689.106500	CCNP001339	1
122	2	0.231716	551193.571600	551193.560000	551433.155300	551433.152100	3	1	0.369625	552434.751800	552434.745700	552808.755600	552808.752000	CCNP001339	0
123	2	0.083170	555313.105100	555313.099500	555401.241000	555401.237700	3	2	0.315376	556402.251600	556402.246400	556721.063100	556721.059700	CCNP001339	1
124	2	0.478105	559224.378400	559224.373300	559713.158900	559713.155600	3	2	0.475523	560714.129700	560714.124700	561193.247100	561193.243600	CCNP001339	0
125	1	0.098091	563697.426900	563697.421600	563800.970200	563800.965400	2	1	0.258874	564801.865700	564801.860900	565064.803400	565064.799900	CCNP001339	0
126	1	0.368081	567568.867800	567568.862500	567952.938400	567952.935300	2	2	0.388411	568953.772600	568953.767700	569345.532700	569345.525400	CCNP001339	0
127	1	0.307325	571849.577900	571849.573000	572161.599000	572161.595600	2	1	0.338959	573162.527400	573162.522500	573504.823000	573504.819900	CCNP001339	0
128	2	0.326374	576008.298700	576008.293500	576344.806400	576344.802700	3	1	0.428306	577345.735500	577345.731000	577777.417200	577777.414000	CCNP001339	1
129	2	0.258658	580280.952400	580280.947000	580544.888300	580544.884800	2	1	0.331902	581545.861100	581545.856400	581881.137300	581881.134100	CCNP001339	0
130	2	0.255961	584385.364600	584385.358800	584657.490900	584657.487600	3	2	0.315651	585658.427700	585658.422600	585977.534900	585977.531600	CCNP001339	1
131	2	0.370481	588482.102900	588482.097700	588857.040000	588857.036800	3	2	0.403631	589857.958700	589857.953800	590264.829000	590264.825600	CCNP001339	1
132	2	0.408194	592769.309600	592769.304400	593193.083400	593193.080200	2	2	0.444441	594193.912500	594193.907500	594641.580200	594641.577100	CCNP001339	0
133	2	0.233259	597146.664200	597146.658900	597384.851700	597384.848000	3	2	0.699872	598385.767400	598385.762600	599089.252700	599089.249200	CCNP001339	0
134	2	1.218781	602938.464500	602938.437000	604160.879600	604160.876500	3	2	0.443825	605161.815600	605161.810600	605609.078200	605609.075200	CCNP001339	0
135	2	0.195357	608113.397400	608113.392100	608313.428800	608313.425500	3	1	0.402998	609314.376100	609314.371300	609720.936800	609720.933600	CCNP001339	1
136	2	0.238166	612225.162400	612225.144100	612473.113900	612473.110800	3	1	0.403462	613474.080200	613474.074500	613880.869100	613880.866100	CCNP001339	0
137	1	0.264167	616384.730800	616384.724200	616665.643500	616665.640100	2	2	0.371461	617666.571600	617666.566300	618041.616600	618041.613400	CCNP001339	1
138	1	0.201477	620545.063000	620545.057800	620753.091100	620753.087800	2	2	0.379089	621761.896500	621761.890700	622144.606400	622144.602600	CCNP001339	1
139	1	0.297927	624649.125800	624649.120700	624953.000400	624952.997100	3	2	0.275208	625953.933400	625953.928500	626232.664600	626232.660900	CCNP001339	0
140	1	0.289705	628737.369900	628737.365100	629041.415300	629041.412100	3	1	0.755233	630042.308900	630042.304400	630800.979100	630800.974900	CCNP001339	1
141	1	0.243084	633304.591200	633304.585800	633561.393100	633561.389800	2	2	0.523452	634562.275700	634562.270400	635088.985000	635088.981800	CCNP001339	1
142	1	0.279844	637592.480300	637592.474800	637881.454200	637881.451000	2	2	0.939093	638882.382200	638882.377100	639824.921900	639824.918800	CCNP001339	0
143	1	0.242237	642329.447700	642329.442500	642577.102000	642577.099000	3	2	0.403831	643578.060100	643578.054900	643985.223100	643985.219900	CCNP001339	0
144	1	0.180050	646489.094300	646489.088800	646681.826300	646681.822900	3	1	0.786542	647682.800600	647682.795300	648472.963600	648472.960500	CCNP001339	0
145	1	0.232227	650977.267100	650977.261800	651217.090300	651217.087200	3	1	0.722929	652218.202800	652218.196900	652945.101800	652945.098800	CCNP001339	1
146	1	0.211315	655448.620200	655448.614800	655665.036100	655665.033000	3	1	0.651324	656665.991400	656665.986800	657320.938100	657320.934800	CCNP001339	1
147	1	0.230387	659824.457100	659824.451900	660065.607200	660065.603900	2	2	0.546783	661066.546600	661066.541300	661616.841200	661616.838100	CCNP001339	1
148	1	0.385769	664121.785700	664121.780500	664520.949500	664520.946200	3	1	0.651078	665521.902700	665521.897500	666176.746600	666176.743200	CCNP001339	1
149	2	0.252009	668680.144100	668680.139000	668937.140000	668937.136600	3	1	0.603668	669938.075400	669938.070700	670545.195100	670545.191900	CCNP001339	1
150	1	0.387484	673049.058300	673049.052900	673441.539200	673441.536000	2	2	0.363313	674442.478300	674442.473700	674809.053100	674809.050000	CCNP001339	0
151	2	0.242110	677312.496200	677312.490500	677560.856400	677560.852900	3	1	0.348526	678561.768200	678561.763200	678913.460900	678913.457500	CCNP001339	0
152	1	0.234273	681416.932400	681416.927200	681657.316300	681657.312300	2	2	0.595706	682658.185500	682658.180800	683257.216400	683257.213300	CCNP001339	0
153	1	0.007705	685761.863900	685761.858400	685777.286700	685777.282200	2	1	0.347782	686778.231800	686778.226500	687129.433800	687129.430600	CCNP001339	0
154	2	0.043376	689632.976400	689632.971200	689681.001200	689680.997900	3	1	0.444062	690681.874100	690681.869100	691129.646700	691129.643000	CCNP001339	0
155	2	0.322441	693633.462300	693633.457000	693960.952400	693960.949200	3	2	0.443939	694961.935300	694961.929900	695409.235100	695409.232000	CCNP001339	0
156	1	0.234696	697912.845500	697912.839900	698152.867700	698152.864300	2	1	0.324296	699153.756400	699153.751500	699481.640300	699481.637000	CCNP001339	1
157	1	0.198514	701986.093000	701986.087900	702201.336000	702201.331700	3	1	0.426630	703202.278700	703202.274100	703632.803100	703632.799500	CCNP001339	1
158	1	0.232442	706138.306300	706138.299800	706384.928800	706384.925000	2	1	0.316117	707386.022400	707386.016900	707705.335500	707705.332000	CCNP001339	0
159	1	0.239148	710209.382300	710209.377100	710457.454400	710457.451000	3	1	1.019212	711458.359100	711458.354300	712481.029900	712481.026500	CCNP001339	0
160	1	0.327624	714984.935100	714984.928100	715329.308000	715329.304500	2	1	1.842604	716330.235000	716330.230200	718176.819900	718176.816200	CCNP001339	1
161	1	0.531972	720680.509600	720680.504300	721216.914700	721216.911100	2	1	0.618645	722218.269200	722218.263700	722840.876800	722840.873800	CCNP001339	1
162	1	0.225355	725345.838200	725345.810500	725577.055600	725577.052200	2	1	0.508070	726578.044200	726578.039600	727089.610300	727089.607000	CCNP001339	0
163	1	0.422958	729593.497100	729593.491700	730024.715700	730024.712200	2	2	0.475346	731025.596700	731025.592100	731504.820600	731504.817000	CCNP001339	0
164	1	0.103100	734009.015900	734009.010700	734121.458700	734121.455400	2	1	0.323639	735122.458300	735122.453400	735449.580600	735449.577200	CCNP001339	0
165	2	0.504956	737953.166200	737953.158600	738473.456600	738473.453300	2	1	1.083039	739474.454900	739474.450300	740560.957300	740560.954300	CCNP001339	0
166	2	0.058357	743065.525000	743065.517800	743129.453000	743129.449000	3	1	0.850455	744130.420200	744130.415400	744985.055500	744985.051200	CCNP001339	1
167	2	1.331183	747488.505700	747488.500600	748833.088100	748833.085100	3	1	0.635223	749833.976000	749833.970800	750473.067500	750473.064400	CCNP001339	0
168	2	0.143077	752976.274900	752976.269500	753129.128700	753129.124300	3	2	0.611510	754130.078000	754130.073500	754744.944000	754744.940700	CCNP001339	0
169	2	0.403762	757248.576800	757248.571700	757656.868400	757656.865200	2	1	0.459165	758657.855100	758657.849900	759121.371900	759121.367500	CCNP001339	0
170	2	0.230266	761625.451000	761625.446000	761865.487800	761865.484400	2	2	0.570905	762866.457900	762866.453000	763440.928900	763440.925700	CCNP001339	0
171	2	0.240469	765944.431600	765944.426500	766192.814000	766192.810400	3	1	0.299964	767193.798800	767193.793800	767497.230700	767497.227600	CCNP001339	0
172	1	0.270943	770002.156600	770002.151100	770289.586800	770289.583500	3	1	0.746262	771290.535900	771290.530900	772040.841000	772040.837400	CCNP001339	1
173	1	0.240996	774544.333400	774544.328000	774793.030400	774793.027200	2	1	0.628253	775793.867000	775793.860100	776425.430300	776425.427100	CCNP001339	1
174	1	0.233188	778930.280500	778930.275400	779168.645000	779168.641400	2	1	0.331976	780169.569100	780169.564300	780505.008700	780505.005600	CCNP001339	1
175	1	0.077664	783009.596600	783009.591600	783097.094600	783097.090500	3	1	0.603771	784098.069500	784098.060600	784705.342100	784705.338800	CCNP001339	1
176	1	0.143249	787210.022500	787210.017800	787361.707000	787361.703600	2	1	0.315323	788362.664200	788362.659500	788681.427900	788681.424500	CCNP001339	1
177	1	0.239045	791185.648000	791185.642800	791441.006900	791441.003800	2	1	0.476066	792441.936400	792441.931800	792921.348000	792921.344400	CCNP001339	0
178	1	0.318453	795425.810200	795425.791700	795753.677300	795753.673900	2	1	0.610423	796754.607600	796754.602800	797368.865800	797368.862200	CCNP001339	0
179	1	0.268257	799873.256800	799873.250700	800153.217900	800153.214800	2	1	1.483438	801154.192700	801154.186100	802641.116700	802641.113400	CCNP001339	1
180	1	0.305219	805145.221800	805145.215700	805457.028900	805457.025600	3	1	1.586811	806457.965000	806457.960600	808049.063500	808049.059100	CCNP001339	0
181	1	0.273390	810553.312600	810553.307400	810841.886000	810841.882900	3	1	0.570659	811842.889400	811842.884600	812416.976500	812416.973200	CCNP001339	1
182	1	0.753824	814921.063800	814921.057800	815689.150800	815689.147500	2	1	1.723828	816690.065700	816690.060300	818417.177000	818417.173800	CCNP001339	0
183	2	0.633813	820922.153500	820922.148100	821568.914100	821568.910900	3	1	1.099842	822569.822800	822569.812800	823673.026400	823673.023200	CCNP001339	1
184	1	0.223582	826176.492800	826176.470600	826408.940000	826408.936700	3	1	0.627602	827409.915400	827409.910300	828040.983600	828040.980500	CCNP001339	0
185	1	0.113762	830545.528100	830545.522900	830665.712000	830665.708600	2	1	0.890615	831666.663300	831666.658500	832561.058400	832561.055200	CCNP001339	1
186	1	0.250605	835065.505800	835065.500500	835320.911200	835320.907900	2	1	0.412167	836321.935100	836321.915400	836737.431100	836737.427800	CCNP001339	1
187	1	0.309556	839240.885000	839240.879000	839561.324800	839561.321600	3	2	0.891953	840562.207100	840562.202500	841457.620700	841457.617400	CCNP001339	1
188	1	0.072970	843961.001800	843960.996400	844041.362700	844041.359300	2	1	0.778568	845042.344500	845042.335200	845825.318800	845825.314700	CCNP001339	0
189	2	0.153715	848329.244500	848329.239300	848489.049600	848489.046500	2	1	0.635884	849489.989600	849489.984400	850129.250800	850129.247500	CCNP001339	0
190	2	0.067196	852633.941500	852633.933600	852705.454700	852705.451500	3	2	0.603201	853706.413000	853706.393100	854312.905000	854312.901900	CCNP001339	1
191	2	0.283297	856817.130200	856817.125200	857105.116000	857105.112900	2	2	0.851330	858106.082600	858106.077600	858960.831300	858960.827700	CCNP001339	1
192	2	0.299099	861465.971500	861465.966300	861769.226900	861769.223700	3	2	0.291744	862770.197300	862770.192100	863065.201000	863065.197900	CCNP001339	1
193	2	0.240173	865570.249300	865570.244500	865825.390800	865825.387600	3	2	0.468154	866826.248900	866826.243700	867298.050800	867298.047500	CCNP001339	0
194	2	0.078914	869801.950200	869801.907700	869897.547000	869897.543700	3	2	0.787049	870898.489300	870898.469700	871689.112700	871689.109600	CCNP001339	0
195	1	0.231052	874193.618600	874193.613200	874433.114900	874433.111600	2	2	0.378562	875434.031900	875434.027200	875816.882800	875816.879200	CCNP001339	1
196	1	0.890038	878321.756800	878321.751400	879225.527300	879225.524000	2	2	0.443206	880226.590000	880226.584500	880673.259000	880673.255800	CCNP001339	0
197	1	0.208039	883177.715300	883177.709900	883393.518200	883393.514800	2	2	0.724317	884394.523000	884394.517900	885122.206700	885122.203300	CCNP001339	1
198	1	0.261633	887625.851900	887625.846700	887897.104500	887897.101200	2	2	0.338717	888898.044000	888898.038500	889241.332300	889241.328000	CCNP001339	1
199	1	0.105409	891745.937100	891745.931900	891857.343400	891857.340200	2	2	0.323058	892858.399700	892858.394700	893184.997200	893184.993400	CCNP001339	0
200	1	0.010951	895688.874700	895688.869100	895712.840700	895712.836700	2	2	0.332370	896713.710900	896713.705200	897049.166700	897049.163700	CCNP001339	1