
trial	choice1	rts1	stim1ons_sl	stim1ons_ms	choice1ons_sl	choice1ons_ms	state	choice2	rts2	stim2ons_sl	stim2ons_ms	choice2ons_sl	choice2ons_ms	SC_ID	won

1	1	1.602657	322.266100	322.260400	1935.994900	1935.990400	2	2	1.042585	2937.664400	2937.658700	3983.660900	3983.657800	CCNP001689	0
2	1	0.429200	6488.306800	6488.301200	6928.218100	6928.214800	2	1	0.682615	7929.837900	7929.831500	8615.778000	8615.774700	CCNP001689	1
3	1	0.586373	11120.315100	11120.305500	11719.567300	11719.563100	3	1	0.507377	12721.033500	12721.027200	13231.876300	13231.872800	CCNP001689	1
4	1	0.473886	15737.797800	15737.792500	16223.834100	16223.829900	2	1	0.610978	17225.204500	17225.198900	17839.625600	17839.622300	CCNP001689	1
5	1	0.306562	20344.851000	20344.845400	20655.771400	20655.767900	2	1	0.497761	21658.479700	21658.473600	22159.640000	22159.636700	CCNP001689	1
6	1	0.492363	24666.480000	24666.473700	25175.909900	25175.905800	2	1	0.578900	26177.088900	26177.070600	26759.396400	26759.392900	CCNP001689	1
7	1	0.452837	29262.855900	29262.849100	29719.626500	29719.623400	2	1	0.643669	30720.795400	30720.789600	31367.868700	31367.865500	CCNP001689	1
8	1	0.445296	33871.106700	33871.101800	34327.744500	34327.741300	3	1	0.435062	35329.069100	35329.063100	35767.638000	35767.634800	CCNP001689	1
9	1	0.348808	38271.394000	38271.388600	38631.697500	38631.691200	3	1	0.579651	39632.652500	39632.647000	40215.983500	40215.979800	CCNP001689	0
10	1	0.451075	42719.417300	42719.412200	43183.606900	43183.603800	2	1	0.539868	44184.568100	44184.562300	44727.797600	44727.794500	CCNP001689	1
11	1	0.493199	47231.170800	47231.164900	47728.487800	47728.484500	3	1	0.642780	48729.288600	48729.283500	49375.536900	49375.533300	CCNP001689	0
12	2	0.547716	51878.948400	51878.941900	52431.585600	52431.581800	3	2	0.411742	53432.916400	53432.905400	53848.244900	53848.241300	CCNP001689	0
13	1	0.482111	56351.681200	56351.675500	56847.864300	56847.861100	2	1	0.315530	57848.975000	57848.969800	58168.381400	58168.377800	CCNP001689	0
14	1	0.357292	60671.846600	60671.840600	61039.745100	61039.741600	2	1	0.306578	62040.722500	62040.717900	62351.332600	62351.328200	CCNP001689	1
15	1	0.365726	64854.487500	64854.481900	65231.867400	65231.862500	3	1	0.483538	66232.883700	66232.878800	66719.829800	66719.826400	CCNP001689	0
16	1	0.318332	69223.209600	69223.201000	69551.748100	69551.743800	2	2	0.339700	70552.755100	70552.750200	70895.941300	70895.937600	CCNP001689	0
17	2	0.352228	73399.794200	73399.788000	73768.205100	73768.201900	2	1	0.435798	74769.191400	74769.186900	75208.223400	75208.220200	CCNP001689	1
18	2	0.443576	77711.769700	77711.763700	78159.621500	78159.617600	3	1	0.282544	79160.645600	79160.639800	79447.947600	79447.943400	CCNP001689	0
19	2	0.346410	81952.168900	81952.163000	82312.317000	82312.313700	3	1	0.490005	83313.315200	83313.308400	83807.728200	83807.723700	CCNP001689	1
20	2	0.388207	86311.303600	86311.296800	86704.079600	86704.076100	2	2	0.242371	87705.109200	87705.103800	87951.604300	87951.600500	CCNP001689	0
21	1	0.406087	90455.033100	90455.027200	90872.364000	90872.359800	2	1	0.378547	91873.281600	91873.276400	92255.948300	92255.943900	CCNP001689	1
22	2	0.434018	94759.797600	94759.792200	95199.787200	95199.783800	3	2	0.611762	96200.736800	96200.731300	96815.829900	96815.826700	CCNP001689	0
23	1	0.379235	99319.413300	99319.406600	99711.819400	99711.816100	2	2	0.459086	100712.734900	100712.730300	101175.528600	101175.525300	CCNP001689	1
24	1	0.644872	103678.971600	103678.963100	104327.871800	104327.868500	2	2	0.746727	105328.882500	105328.877000	106079.356200	106079.352800	CCNP001689	1
25	2	0.464488	108588.519400	108588.514100	109063.813900	109063.810700	3	2	0.579653	110064.901100	110064.881600	110648.361700	110648.358100	CCNP001689	1
26	1	0.521979	113151.980100	113151.973700	113687.833300	113687.830000	2	1	0.299901	114688.961700	114688.956300	114992.211900	114992.208600	CCNP001689	0
27	2	0.290979	117495.841000	117495.836000	117791.840000	117791.835700	3	2	0.707297	118792.876900	118792.869500	119503.875700	119503.872500	CCNP001689	0
28	1	0.584227	122007.810800	122007.803700	122600.050300	122600.046900	2	1	0.874837	123601.100100	123601.094000	124479.737800	124479.734500	CCNP001689	1
29	2	0.552477	126983.310500	126983.303500	127551.754200	127551.750600	3	2	0.475615	128552.807700	128552.802600	129031.968600	129031.952600	CCNP001689	0
30	1	0.362554	131535.655300	131535.650600	131911.714300	131911.711300	2	1	0.523405	132912.712100	132912.706500	133439.875400	133439.872200	CCNP001689	0
31	2	0.538409	135943.381100	135943.376200	136487.679000	136487.675700	3	2	0.547787	137488.765900	137488.760400	138039.962900	138039.959600	CCNP001689	0
32	1	0.259128	140543.462200	140543.457200	140808.327600	140808.324000	3	1	0.595415	141809.434600	141809.429400	142408.227900	142408.224600	CCNP001689	1
33	2	0.524051	144911.984900	144911.978600	145439.944500	145439.941300	2	2	0.739398	146441.060400	146441.055200	147183.976300	147183.973000	CCNP001689	1
34	2	0.420584	149687.517900	149687.513000	150120.210300	150120.206900	3	1	0.371594	151121.343400	151121.338300	151496.388000	151496.384700	CCNP001689	0
35	2	0.287815	154000.060000	154000.054900	154304.198300	154304.195100	3	1	0.491534	155305.307900	155305.302500	155800.252100	155800.248700	CCNP001689	1
36	1	0.347385	158303.725100	158303.720000	158663.583100	158663.580000	3	1	0.324122	159664.716700	159664.711400	159992.251200	159992.247900	CCNP001689	0
37	1	0.372178	162495.611300	162495.606400	162871.816300	162871.813000	2	1	0.315636	163872.884200	163872.878900	164191.926500	164191.923200	CCNP001689	1
38	1	0.380320	166695.524700	166695.517800	167079.829500	167079.826100	2	1	0.322682	168080.904400	168080.899300	168407.487500	168407.483900	CCNP001689	1
39	1	0.451831	170911.003700	170910.998700	171367.802100	171367.798900	2	1	0.299685	172368.977600	172368.972300	172672.289500	172672.286200	CCNP001689	1
40	1	0.353164	175175.788500	175175.783600	175535.915800	175535.912200	3	1	0.275516	176537.060700	176537.055800	176816.036500	176816.033200	CCNP001689	1
41	1	0.298273	179319.710400	179319.704900	179632.148200	179632.144000	2	1	0.315548	180633.267000	180633.261200	180952.253500	180952.250300	CCNP001689	1
42	1	0.309970	183455.740400	183455.735400	183775.931800	183775.928700	2	1	0.420130	184777.043500	184777.038400	185200.480400	185200.477100	CCNP001689	0
43	1	0.387852	187703.900300	187703.894700	188103.805100	188103.802000	3	1	0.275347	189105.025500	189105.020400	189383.755800	189383.752700	CCNP001689	0
44	1	0.236737	191887.457800	191887.452800	192136.250500	192136.247300	3	1	0.339521	193137.456100	193137.450800	193480.429500	193480.426200	CCNP001689	1
45	1	0.360256	195984.294000	195984.287800	196359.733500	196359.726400	3	1	0.459467	197360.975800	197360.970300	197823.665900	197823.662800	CCNP001689	0
46	1	0.499095	200327.323300	200327.318500	200831.992800	200831.986100	2	1	0.299242	201833.114300	201833.109100	202135.881100	202135.877900	CCNP001689	1
47	1	0.422565	204639.624600	204639.619700	205072.104700	205072.101400	2	1	0.635122	206073.306100	206073.301000	206711.752000	206711.748800	CCNP001689	0
48	1	0.332510	209216.014500	209216.007000	209551.715400	209551.712300	2	1	0.868332	210552.840200	210552.835200	211424.382900	211424.379600	CCNP001689	1
49	1	0.482367	213928.243500	213928.238400	214415.572100	214415.567800	2	1	0.555942	215416.733800	215416.728700	215976.089500	215976.086200	CCNP001689	1
50	1	0.339706	218479.797100	218479.788600	218823.744000	218823.740900	3	1	0.563811	219824.886100	219824.880900	220392.110000	220392.106600	CCNP001689	1
51	1	0.356750	222895.711400	222895.706300	223256.693000	223256.689500	2	1	0.561326	224259.013900	224258.994300	224823.739700	224823.736400	CCNP001689	1
52	1	0.483495	227327.213500	227327.208600	227816.497500	227816.493200	2	1	0.674503	228817.677400	228817.672400	229496.017100	229496.013800	CCNP001689	1
53	1	0.287884	232000.146900	232000.140900	232303.907300	232303.904100	2	1	0.363326	233305.168200	233305.163300	233671.787900	233671.784800	CCNP001689	1
54	1	0.384949	236175.599100	236175.593300	236567.540300	236567.536900	2	1	0.331580	237568.696200	237568.691300	237903.635700	237903.632300	CCNP001689	1
55	1	0.318799	240407.285800	240407.281000	240735.597200	240735.593600	2	1	0.347420	241736.823900	241736.818400	242087.659000	242087.655900	CCNP001689	1
56	1	0.304254	244591.541900	244591.531500	244903.832700	244903.829600	2	1	0.643370	245905.053400	245905.048300	246551.745300	246551.742200	CCNP001689	1
57	1	0.540614	249055.340700	249055.335800	249607.662600	249607.659100	2	1	0.427440	250608.857500	250608.852200	251039.643100	251039.639900	CCNP001689	1
58	1	0.617547	253543.363700	253543.358400	254167.563500	254167.560000	2	1	2.258828	255168.829700	255168.824700	257431.608100	257431.604000	CCNP001689	1
59	1	0.514027	259935.495400	259935.490300	260463.628500	260463.625500	2	1	1.682861	261464.894000	261464.888800	263151.655600	263151.652400	CCNP001689	1
60	1	0.572844	265655.702800	265655.696900	266240.115100	266240.110800	3	1	0.947433	267241.346800	267241.341600	268192.158000	268192.154600	CCNP001689	1
61	1	0.739771	270696.106800	270696.101100	271440.205400	271440.202100	2	1	0.683434	272441.431200	272441.426000	273128.257600	273128.254400	CCNP001689	0
62	1	0.603378	275631.867600	275631.862300	276240.105200	276240.100700	3	1	0.803514	277241.342300	277241.337100	278048.265000	278048.261700	CCNP001689	0
63	1	0.273646	280552.181500	280552.176400	280839.876000	280839.873000	2	1	0.306475	281841.355900	281841.350700	282151.865100	282151.862000	CCNP001689	1
64	1	0.261710	284655.210300	284655.205400	284928.019000	284928.015400	3	1	0.282432	285928.906700	285928.901700	286215.634700	286215.630300	CCNP001689	1
65	1	0.355144	288718.988600	288718.983500	289087.927700	289087.924500	2	1	0.219924	290088.857500	290088.852800	290312.091700	290312.088400	CCNP001689	0
66	2	0.394967	292815.737000	292815.729500	293216.001900	293215.998200	3	1	0.331493	294216.895000	294216.890500	294551.848500	294551.845500	CCNP001689	1
67	0	0.000000	383020.642800	383020.637300	0.000000	0.000000
68	1	0.718557	387023.604900	387023.600100	387751.689400	387751.686200	2	1	0.395013	388752.650800	388752.645500	389151.610100	389151.606600	CCNP001689	1
69	1	0.572747	391655.039900	391655.035100	392239.792300	392239.788000	3	1	0.530953	393240.658400	393240.653700	393776.141000	393776.136800	CCNP001689	0
70	1	0.292164	396279.709200	396279.702700	396575.968000	396575.964800	3	1	0.403768	397576.866500	397576.861500	397984.002700	397983.999300	CCNP001689	1
71	1	0.299990	400487.569700	400487.564500	400799.630500	400799.627400	2	1	0.595783	401800.531900	401800.527200	402399.785500	402399.782100	CCNP001689	1
72	2	0.363176	404903.578500	404903.572300	405279.671600	405279.668400	2	1	0.220129	406280.569600	406280.564900	406504.335400	406504.332100	CCNP001689	1
73	2	0.398468	409007.558400	409007.553900	409415.838800	409415.835100	3	2	0.290972	410416.711300	410416.706800	410711.636100	410711.632400	CCNP001689	1
74	1	0.276435	413215.140400	413215.126300	413496.076700	413496.073200	2	1	0.395682	414496.966900	414496.962100	414896.126700	414896.123400	CCNP001689	1
75	2	0.327679	417399.684300	417399.678500	417744.325000	417744.321700	3	1	0.330448	418745.215700	418745.211000	419079.697600	419079.694100	CCNP001689	1
76	2	0.408362	421583.433200	421583.425800	422008.160800	422008.157500	2	1	0.315563	423009.019900	423009.014900	423327.852200	423327.849000	CCNP001689	1
77	2	0.300046	425831.012000	425831.006400	426135.817100	426135.813900	2	1	0.515012	427136.718900	427136.713600	427656.042300	427656.037900	CCNP001689	1
78	2	0.345136	430159.438000	430159.433100	430511.759800	430511.756300	2	2	0.267004	431512.763400	431512.758500	431783.569600	431783.566000	CCNP001689	0
79	2	0.275783	434286.996100	434286.991100	434575.857000	434575.853800	3	1	0.252575	435576.756600	435576.751900	435832.867600	435832.864400	CCNP001689	1
80	2	0.369444	438336.242200	438336.236900	438719.869800	438719.865600	2	1	0.387795	439720.741100	439720.736300	440112.017400	440112.014300	CCNP001689	1
81	2	0.387590	442615.490300	442615.485100	443007.779000	443007.775400	3	1	0.364313	444008.680600	444008.676200	444376.495000	444376.491700	CCNP001689	0
82	2	0.276022	446879.850400	446879.845300	447159.988200	447159.985100	3	2	0.299481	448160.862100	448160.857100	448463.796700	448463.793500	CCNP001689	1
83	2	0.377443	450967.242000	450967.236700	451360.665600	451360.662300	3	2	0.507077	452361.562500	452361.557700	452872.119400	452872.116000	CCNP001689	0
84	2	0.536596	455375.623900	455375.618900	455919.663400	455919.659900	3	2	0.587741	456920.594800	456920.590000	457511.816700	457511.813700	CCNP001689	0
85	2	0.571881	460015.358100	460015.352000	460592.417100	460592.413900	2	2	0.699010	461593.563500	461593.545500	462296.194700	462296.191300	CCNP001689	1
86	2	0.471478	464800.834400	464800.829100	465287.972700	465287.969300	3	2	0.284122	466288.782800	466288.778200	466576.313700	466576.310400	CCNP001689	1
87	1	0.483301	469079.663100	469079.658100	469568.311300	469568.308000	2	1	0.258616	470569.221100	470569.216400	470832.101400	470832.082200	CCNP001689	0
88	1	0.274147	473335.827900	473335.822700	473624.094000	473624.090700	2	1	0.451716	474625.008700	474625.004000	475080.243500	475080.240100	CCNP001689	1
89	1	0.383245	477583.909900	477583.903600	477983.721100	477983.717600	3	1	0.643185	478984.573400	478984.568800	479632.097300	479632.093200	CCNP001689	1
90	1	0.722054	482135.657300	482135.651000	482872.220900	482872.217500	2	1	1.852067	483873.097500	483873.092700	485728.533300	485728.530100	CCNP001689	1
91	1	0.605696	488233.093600	488233.086900	488855.759900	488855.756700	2	1	0.483861	489856.710600	489856.704800	490344.061500	490344.058400	CCNP001689	0
92	2	0.275632	492847.523400	492847.516900	493128.648000	493128.644600	3	1	0.218716	494129.530200	494129.525600	494351.807000	494351.788800	CCNP001689	0
93	2	0.108407	496855.396000	496855.391100	496975.998500	496975.994300	3	2	0.314922	497976.851600	497976.847100	498295.678100	498295.674600	CCNP001689	0
94	1	0.053415	500799.411300	500799.403300	500856.477900	500856.474600	2	1	0.227260	501857.374000	501857.369400	502088.019100	502088.016100	CCNP001689	0
95	2	0.383999	504591.548200	504591.541900	504983.916900	504983.913800	2	1	0.227924	505984.811600	505984.807000	506216.249900	506216.246300	CCNP001689	1
96	1	0.210923	508719.703100	508719.697500	508944.120500	508944.117400	2	1	0.339356	509945.053600	509945.049200	510287.897700	510287.894600	CCNP001689	1
97	1	0.264551	512791.400200	512791.394400	513064.474000	513064.470600	2	1	0.290533	514065.315200	514065.310900	514359.957900	514359.954800	CCNP001689	0
98	2	0.268362	516863.410900	516863.405100	517135.987700	517135.984400	3	2	0.300088	518136.789000	518136.784400	518440.195800	518440.192500	CCNP001689	1
99	2	0.642129	520943.546100	520943.541100	521592.135000	521592.131700	3	2	0.323746	522593.039000	522593.033900	522920.135600	522920.132300	CCNP001689	1
100	2	0.398799	525423.440600	525423.435600	525832.010300	525832.007100	3	2	0.331662	526833.169300	526833.163000	527168.580400	527168.577100	CCNP001689	0
101	1	0.324368	529672.039100	529672.034100	530007.743600	530007.740500	3	1	0.227842	531008.670200	531008.664800	531239.944700	531239.941500	CCNP001689	1
102	1	0.258129	533743.320300	533743.315200	534008.143800	534008.140600	2	1	0.363764	535009.053100	535009.048500	535376.387300	535376.384000	CCNP001689	0
103	1	0.283645	537879.662000	537879.657100	538168.257600	538168.254300	3	1	0.306776	539169.109800	539169.105200	539479.786900	539479.783400	CCNP001689	1
104	1	0.320427	541983.421400	541983.415900	542320.392500	542320.389200	3	1	0.458350	543321.334800	543321.316700	543783.678800	543783.675300	CCNP001689	0
105	1	0.452336	546286.999000	546286.994200	546752.400500	546752.396200	3	1	0.251727	547753.294800	547753.289900	548008.497600	548008.494200	CCNP001689	0
106	2	0.755192	550511.779000	550511.772800	551271.896300	551271.893200	2	2	0.211523	552272.812400	552272.807400	552487.928200	552487.924400	CCNP001689	0
107	1	0.192094	554991.307600	554991.303000	555192.109900	555192.106600	2	1	0.434821	556193.000800	556192.995900	556631.653600	556631.650000	CCNP001689	0
108	2	0.497925	559136.027000	559136.022000	559647.865800	559647.862500	2	1	0.283395	560648.671900	560648.667200	560936.050600	560936.047400	CCNP001689	0
109	2	0.437793	563439.436400	563439.431500	563887.676200	563887.673100	3	1	0.259704	564888.803500	564888.794600	565152.249800	565152.246500	CCNP001689	0
110	2	0.412458	567655.705700	567655.680100	568079.696000	568079.692300	3	2	0.403948	569080.546400	569080.541600	569487.970100	569487.967000	CCNP001689	0
111	1	0.336319	571991.417200	571991.412200	572336.425000	572336.421700	2	1	0.307444	573337.250500	573337.245500	573648.044300	573648.041100	CCNP001689	0
112	1	0.561219	576151.773300	576151.768500	576727.964900	576727.961700	3	1	0.651938	577728.893100	577728.888400	578384.223500	578384.220200	CCNP001689	0
113	2	0.428112	580887.525100	580887.519100	581328.051100	581328.048000	3	2	0.507714	582328.954500	582328.949900	582840.013300	582840.010300	CCNP001689	1
114	2	0.842067	585343.587000	585343.580100	586191.893700	586191.890500	3	2	0.243708	587192.806800	587192.801600	587440.028400	587440.025000	CCNP001689	0
115	1	0.361797	589943.484800	589943.479500	590311.923300	590311.920300	2	1	0.451357	591312.994900	591312.989700	591767.983500	591767.980300	CCNP001689	0
116	1	0.340723	594271.325700	594271.320600	594623.992900	594623.989800	2	1	0.347572	595624.939200	595624.934300	595975.864900	595975.861800	CCNP001689	0
117	1	0.931329	598479.490200	598479.485100	599416.148400	599416.143900	2	1	0.250868	600416.957600	600416.953100	600672.180400	600672.176000	CCNP001689	0
118	2	0.288366	603175.638900	603175.633200	603471.729400	603471.726300	2	2	0.339852	604472.607600	604472.603200	604816.101000	604816.095400	CCNP001689	0
119	1	0.338297	607319.516800	607319.511900	607671.971400	607671.968200	3	2	0.268068	608672.862900	608672.858100	608944.538300	608944.535000	CCNP001689	0
120	1	0.250635	611447.883300	611447.877400	611703.960600	611703.957300	2	1	0.483567	612704.881900	612704.876200	613192.066800	613192.063700	CCNP001689	0
121	1	0.611139	615695.507600	615695.502700	616312.036400	616312.033200	3	1	0.324015	617312.949800	617312.941300	617640.368800	617640.365100	CCNP001689	1
122	1	0.338032	620143.717600	620143.712300	620488.004200	620488.001100	3	1	0.451545	621488.912900	621488.908000	621943.937700	621943.934500	CCNP001689	1
123	1	0.515783	624447.325400	624447.318300	624968.448900	624968.445600	2	1	0.411655	625969.355100	625969.350600	626384.424000	626384.420600	CCNP001689	1
124	1	0.731542	628888.315200	628888.310000	629631.935600	629631.932300	2	1	0.434792	630633.226000	630633.221100	631072.138500	631072.135300	CCNP001689	0
125	1	1.449242	633575.822700	633575.816700	635032.651300	635032.645900	3	1	1.153995	636033.512900	636033.508000	637192.010100	637192.006000	CCNP001689	1
126	1	0.916515	639695.370900	639695.366100	640616.528600	640616.525300	2	1	0.579016	641617.509400	641617.504100	642199.953200	642199.949200	CCNP001689	1
127	2	0.539544	644703.356000	644703.351300	645256.298600	645256.295200	3	1	0.419362	646257.253600	646257.248700	646679.935600	646679.932400	CCNP001689	1
128	1	2.048165	649183.620600	649183.615000	651248.272100	651248.268900	2	1	1.603127	652249.388400	652249.378600	653855.950600	653855.947500	CCNP001689	1
129	1	0.320813	656359.408500	656359.403900	656687.749000	656687.745900	3	1	0.483725	657688.702100	657688.697100	658175.982500	658175.978900	CCNP001689	1
130	1	0.636804	660679.523100	660679.518000	661320.084700	661320.081500	2	1	0.411385	662321.007400	662321.002500	662735.814300	662735.811100	CCNP001689	1
131	1	0.453829	665239.326800	665239.320800	665703.950700	665703.947600	2	1	0.467888	666704.840000	666704.835200	667176.076200	667176.073000	CCNP001689	0
132	1	0.316462	669679.496600	669679.491700	670000.014500	670000.011300	2	1	0.699803	671000.927600	671000.909400	671704.131200	671704.128100	CCNP001689	1
133	1	0.407376	674207.632100	674207.627300	674624.432400	674624.429000	2	1	0.355209	675625.237800	675625.233300	675983.956000	675983.952900	CCNP001689	1
134	1	1.127129	856709.934700	856709.929200	857839.831900	857839.828700	2	1	0.451723	858840.763700	858840.758600	859296.043100	859296.040000	CCNP001689	0
135	2	0.285006	861799.542000	861799.536600	862088.340200	862088.336900	2	2	0.354620	863089.311700	863089.306900	863447.891700	863447.887800	CCNP001689	0
136	1	0.304876	865951.365800	865951.360700	866272.214900	866272.211700	2	1	0.346691	867273.088600	867273.084100	867623.806600	867623.803100	CCNP001689	0
137	2	0.378301	870127.320600	870127.315400	870512.331800	870512.328200	3	2	0.426440	871513.198200	871513.193700	871943.847100	871943.843600	CCNP001689	0
138	1	0.259797	874447.297800	874447.292400	874712.096000	874712.093000	2	1	0.515171	875713.005900	875713.001100	876231.925200	876231.922000	CCNP001689	0
139	1	0.401542	878736.149100	878736.144700	879152.081700	879152.078700	2	1	0.403707	880152.916000	880152.911300	880560.110200	880560.107100	CCNP001689	0
140	2	0.266718	883063.880200	883063.875000	883336.007800	883336.004600	2	2	0.363055	884336.916000	884336.911500	884704.289800	884704.285700	CCNP001689	0
141	1	0.375065	887207.911600	887207.904300	887592.163900	887592.160900	3	1	0.372256	888593.078500	888593.073700	888968.844500	888968.841000	CCNP001689	0
142	2	1.124592	891472.289700	891472.285300	892608.576300	892608.572700	3	1	0.258907	893609.414000	893609.407900	893871.970200	893871.966500	CCNP001689	0
143	2	0.328398	896375.752600	896375.745400	896712.425300	896712.420100	2	2	0.443500	897713.169200	897713.164500	898160.342300	898160.338700	CCNP001689	0
144	2	0.371318	900663.709200	900663.704100	901040.015200	901040.011800	3	2	0.419529	902040.978900	902040.972500	902464.085500	902464.082300	CCNP001689	1
145	1	0.440224	904967.929300	904967.924100	905424.112300	905424.109100	2	1	0.322808	906425.106900	906425.098600	906751.840000	906751.836300	CCNP001689	1
146	2	0.317029	909255.157700	909255.152700	909584.167100	909584.164100	2	2	0.339742	910585.077600	910585.073000	910928.320400	910928.317000	CCNP001689	1
147	1	0.418260	913431.950700	913431.945600	913856.206000	913856.201700	2	1	0.411701	914857.027400	914857.022800	915272.037500	915272.034300	CCNP001689	1
148	2	0.240533	917775.569500	917775.564500	918024.546500	918024.543100	3	2	0.338921	919025.443300	919025.438900	919367.888800	919367.885500	CCNP001689	0
149	1	0.420462	921871.258900	921871.254200	922304.465800	922304.462500	2	1	0.459233	923305.455900	923305.451000	923768.190800	923768.187600	CCNP001689	0
150	2	0.244206	926271.732000	926271.727000	926528.062800	926528.059400	2	2	0.851603	927528.902900	927528.898100	928383.820100	928383.816400	CCNP001689	0
151	1	0.619873	930887.306100	930887.301100	931520.695300	931520.692000	2	1	0.770864	932521.597400	932521.592300	933296.025400	933296.022100	CCNP001689	0
152	1	0.427213	935800.257100	935800.249700	936232.297700	936232.294200	2	1	1.114286	937233.562300	937233.553700	938352.020800	938352.017500	CCNP001689	0
153	2	0.668890	940855.485100	940855.480100	941536.314500	941536.311000	3	2	1.699231	942537.275000	942537.270100	944239.854700	944239.851500	CCNP001689	0
154	2	0.553983	946743.090800	946743.085800	947304.491600	947304.488200	3	1	1.170552	948305.402100	948305.397400	949479.741100	949479.737400	CCNP001689	1
155	2	0.485621	951983.580000	951983.573400	952472.652800	952472.649600	3	2	2.379469	953473.592100	953473.587700	955856.472000	955856.468400	CCNP001689	0
156	2	0.264913	958359.850700	958359.845200	958632.108000	958632.104900	2	2	1.259790	959633.091200	959633.072700	960896.315000	960896.311600	CCNP001689	0
157	2	0.436985	963400.045900	963400.036800	963840.563600	963840.560300	3	2	0.914700	964841.690700	964841.685200	965760.033400	965760.030300	CCNP001689	0
158	2	1.258897	968263.537400	968263.532600	969528.348600	969528.344400	3	2	0.810664	970529.245100	970529.240600	971343.803200	971343.799700	CCNP001689	0
159	1	0.466314	973847.928800	973847.923700	974320.508100	974320.504800	2	1	0.434537	975321.375500	975321.370600	975760.357100	975760.353000	CCNP001689	1
160	1	0.339348	978263.803500	978263.798600	978608.235500	978608.232500	2	1	0.508024	979609.078700	979609.073900	980120.265900	980120.262700	CCNP001689	0
161	1	0.158098	982623.683300	982623.678500	982791.977200	982791.974000	2	2	0.444301	983792.928400	983792.923200	984240.533500	984240.530100	CCNP001689	0
162	1	0.353390	986743.792900	986743.787000	987104.138100	987104.135000	2	1	0.522818	988105.037800	988105.033100	988631.939400	988631.935300	CCNP001689	0
163	1	0.489420	991135.532600	991135.527600	991640.178400	991640.175200	2	1	0.339415	992641.092900	992641.087800	992983.893100	992983.889800	CCNP001689	1
164	1	0.330609	995487.310900	995487.306100	995831.967600	995831.964200	3	1	0.355843	996832.839900	996832.835200	997192.535700	997192.532400	CCNP001689	0
165	2	0.282758	999695.944900	999695.939900	999983.839000	999983.835300	2	1	0.411955	1000984.705000	1000984.700600	1001400.161700	1001400.158200	CCNP001689	0
166	2	0.370831	1003903.759600	1003903.752400	1004288.200000	1004288.196800	3	2	0.699589	1005289.010100	1005289.005000	1005992.179300	1005992.176200	CCNP001689	0
167	2	0.811519	1008495.537800	1008495.532500	1009312.143600	1009312.140400	3	2	0.539928	1010312.989900	1010312.985200	1010856.370700	1010856.367200	CCNP001689	0
168	2	0.696752	1013359.935000	1013359.929800	1014064.054400	1014064.051300	3	2	0.555470	1015065.001300	1015064.994900	1015624.044400	1015624.040900	CCNP001689	0
169	1	0.418385	1018128.160700	1018128.155700	1018552.493800	1018552.490700	3	1	0.779697	1019553.381500	1019553.377200	1020336.650700	1020336.647200	CCNP001689	1
170	1	0.661765	1022840.101300	1022840.095800	1023512.632600	1023512.629200	2	1	1.266655	1024513.520900	1024513.516200	1025783.850900	1025783.847000	CCNP001689	0
171	1	0.411485	1028288.281900	1028288.276800	1028712.320800	1028712.317400	3	1	0.443837	1029713.161900	1029713.157300	1030160.505400	1030160.501400	CCNP001689	1
172	1	0.699660	1032663.908500	1032663.903300	1033368.246800	1033368.243600	2	1	0.419529	1034369.103200	1034369.098600	1034792.303200	1034792.298900	CCNP001689	0
173	2	1.403115	1037295.894700	1037295.890000	1038703.797700	1038703.794600	2	2	0.515298	1039704.698500	1039704.693700	1040224.185800	1040224.181600	CCNP001689	0
174	2	0.321954	1042728.082500	1042728.077300	1043056.015400	1043056.012000	3	0	0.000000	1044056.877200	1044056.872800	0.000000	0.000000	CCNP001689 
175	2	0.283910	1048060.121200	1048060.116100	1048352.058800	1048352.041600	2	2	2.418992	1049352.972800	1049352.967900	1051776.036800	1051776.032500	CCNP001689	0
176	1	0.243412	1054279.512900	1054279.507800	1054528.222600	1054528.218400	2	1	0.547346	1055529.114300	1055529.109800	1056080.011300	1056080.007600	CCNP001689	0
177	1	0.047680	1058584.053400	1058584.047900	1058648.574700	1058648.571300	2	1	1.890849	1059649.465800	1059649.461100	1061544.381300	1061544.377900	CCNP001689	1
178	1	0.523969	1064048.058700	1064048.053400	1064575.961000	1064575.957500	3	1	0.515917	1065576.807200	1065576.802800	1066096.272700	1066096.269400	CCNP001689	0
179	1	0.294839	1068600.709100	1068600.702300	1068912.428200	1068912.424900	2	1	0.707311	1069913.299200	1069913.294300	1070624.112700	1070624.109500	CCNP001689	1
180	2	0.170274	1073128.719200	1073128.714200	1073304.377000	1073304.373700	2	2	0.411316	1074305.292000	1074305.287400	1074720.130000	1074720.126800	CCNP001689	1
181	2	0.238471	1077223.630100	1077223.624100	1077472.673100	1077472.669600	3	2	0.387016	1078473.597500	1078473.593200	1078864.170700	1078864.167500	CCNP001689	0
182	1	0.344637	1081368.234500	1081368.228000	1081728.752300	1081728.748800	2	1	0.330977	1082729.555900	1082729.551400	1083064.041900	1083064.038800	CCNP001689	1
183	2	0.367178	1085567.670100	1085567.664100	1085952.361400	1085952.357300	3	1	0.435590	1086953.286600	1086953.281900	1087392.322800	1087392.319700	CCNP001689	0
184	2	0.283073	1089895.819100	1089895.814200	1090184.017500	1090184.014100	3	2	0.444008	1091184.931600	1091184.926900	1091632.227200	1091632.223900	CCNP001689	0
185	2	0.393085	1094135.989900	1094135.983300	1094543.988400	1094543.985300	3	2	0.523927	1095544.844000	1095544.839700	1096072.246800	1096072.243500	CCNP001689	0
186	2	0.288547	1098576.666300	1098576.661100	1098872.707100	1098872.703900	3	2	0.546883	1099873.666500	1099873.662100	1100424.009200	1100424.005700	CCNP001689	1
187	1	0.521336	1102927.529200	1102927.524200	1103455.907900	1103455.904400	2	1	0.387709	1104456.768300	1104456.763600	1104848.034200	1104848.031100	CCNP001689	1
188	1	0.592777	1107351.722200	1107351.717300	1107960.469700	1107960.465200	2	1	0.595049	1108961.467800	1108961.462600	1109560.116600	1109560.113500	CCNP001689	0
189	1	0.554908	1112064.093700	1112064.087700	1112625.736700	1112625.732500	3	1	0.890200	1113626.580500	1113626.575800	1114520.282900	1114520.279700	CCNP001689	0
190	2	0.782283	1117023.600400	1117023.594500	1117816.705800	1117816.700200	3	2	0.603277	1118817.592000	1118817.572800	1119424.638600	1119424.635400	CCNP001689	0
191	2	0.426539	1121927.960700	1121927.955500	1122360.606400	1122360.602900	3	2	2.091786	1123361.502900	1123361.498200	1125456.569100	1125456.565700	CCNP001689	0
192	2	0.408998	1127961.133200	1127961.128100	1128376.418100	1128376.414800	3	2	1.900229	1129377.275900	1129377.271300	1131280.755300	1131280.751800	CCNP001689	0
193	2	0.607799	1133785.061200	1133785.056000	1134408.534700	1134408.531400	3	2	1.435147	1135409.456600	1135409.437200	1136848.218800	1136848.215600	CCNP001689	0
194	2	0.848574	1139351.745600	1139351.739800	1140216.248400	1140216.244900	2	2	1.834524	1141217.485300	1141217.480400	1143056.023300	1143056.019600	CCNP001689	1
195	2	0.416625	1145559.426800	1145559.420800	1145984.425200	1145984.421900	3	2	0.683374	1146985.254700	1146985.250300	1147672.194500	1147672.191400	CCNP001689	1
196	2	0.824147	1150175.834100	1150175.828900	1151008.346100	1151008.342900	3	2	1.219870	1152009.131800	1152009.126700	1153232.325000	1153232.320400	CCNP001689	1
197	1	0.609270	1155735.664400	1155735.659800	1156360.126000	1156360.122600	2	1	0.403760	1157361.076500	1157361.070700	1157768.588000	1157768.584400	CCNP001689	0
198	2	0.907714	1160272.148200	1160272.143300	1161192.140000	1161192.136800	2	2	2.124031	1162193.075000	1162193.070400	1164320.563100	1164320.559700	CCNP001689	0
199	1	0.678727	1166824.725000	1166824.720200	1167513.062300	1167513.059100	2	1	2.154909	1168513.992300	1168513.987600	1170672.372200	1170672.369000	CCNP001689	1
200	1	0.487707	1173175.815100	1173175.810400	1173672.034600	1173672.031500	2	1	0.676295	1174672.903200	1174672.898600	1175352.729300	1175352.726100	CCNP001689	0