
trial	choice1	rts1	stim1ons_sl	stim1ons_ms	choice1ons_sl	choice1ons_ms	state	choice2	rts2	stim2ons_sl	stim2ons_ms	choice2ons_sl	choice2ons_ms	SC_ID	won

1	1	1.617183	318.959400	318.953300	1953.705400	1953.701100	2	1	1.155604	2960.567600	2960.561200	4121.204400	4121.201300	CCNP001670	1
2	1	0.731340	6630.434100	6630.420300	7369.593600	7369.590400	2	1	0.825990	8370.992100	8370.983700	9202.108800	9202.105600	CCNP001670	1
3	1	0.913717	11708.668200	11708.662300	12633.907400	12633.904100	3	2	2.160771	13635.333500	13635.326900	15801.040300	15801.036700	CCNP001670	0
4	1	0.840933	18309.277700	18309.270900	19161.533200	19161.528900	3	2	1.920681	20162.938400	20162.932600	22089.240500	22089.237000	CCNP001670	1
5	1	0.861048	24597.359000	24597.348700	25465.343000	25465.339800	2	1	0.623029	26469.109500	26469.103100	27097.453400	27097.450200	CCNP001670	0
6	2	1.044976	29607.731400	29607.725900	30665.795000	30665.791800	3	2	1.113396	31667.271200	31667.265200	32785.895000	32785.891900	CCNP001670	1
7	1	0.794112	35291.477100	35291.469100	36097.200300	36097.197200	2	1	0.665582	37098.205500	37098.200200	37769.105400	37769.102000	CCNP001670	1
8	1	0.482685	40274.323500	40274.316600	40769.687200	40769.683900	2	1	0.577372	41770.997800	41770.992300	42353.330100	42353.326900	CCNP001670	1
9	1	0.633810	44858.684000	44858.676000	45505.185300	45505.181800	2	2	0.666230	46506.483300	46506.477700	47177.739100	47177.735800	CCNP001670	0
10	1	0.497517	49683.302100	49683.295400	50201.609900	50201.606600	2	1	0.953837	51202.781900	51202.777000	52161.737500	52161.734200	CCNP001670	1
11	1	0.993620	54667.225700	54667.218400	55681.641900	55681.637800	2	1	0.496205	56682.804100	56682.798700	57185.698100	57185.693900	CCNP001670	1
12	1	0.513570	59691.119700	59691.112600	60217.392400	60217.389300	3	2	1.184676	61218.445400	61218.419300	62409.271600	62409.268100	CCNP001670	1
13	1	0.472816	64915.159000	64915.152600	65409.931300	65409.928100	3	2	0.777078	66411.409600	66411.402400	67193.694100	67193.690900	CCNP001670	0
14	1	0.408526	69699.444300	69699.438400	70129.327700	70129.324300	2	1	0.665624	71130.503400	71130.498000	71801.968000	71801.964700	CCNP001670	1
15	1	0.905463	74307.508700	74307.502900	75225.853400	75225.850200	3	1	1.304172	76227.146100	76227.140900	77537.165200	77537.161700	CCNP001670	1
16	1	0.483113	80043.216000	80043.210300	80537.473000	80537.469800	2	1	0.730010	81538.595200	81538.589700	82273.587300	82273.584200	CCNP001670	1
17	1	0.506021	84779.367000	84779.361400	85305.843400	85305.840100	2	1	0.513676	86306.931000	86306.925600	86825.850200	86825.846900	CCNP001670	0
18	1	1.064051	89331.488200	89331.481200	90417.256500	90417.253500	2	2	0.801295	91418.372100	91418.366700	92225.641500	92225.637300	CCNP001670	0
19	2	1.151765	94731.360400	94731.353400	95905.816400	95905.813200	3	2	0.834183	96906.778200	96906.772900	97745.609700	97745.606600	CCNP001670	0
20	2	0.402698	100252.127200	100252.120700	100673.296300	100673.293200	2	1	0.747340	101674.226500	101674.220600	102426.079500	102426.076100	CCNP001670	0
21	2	0.600082	104932.360100	104932.353100	105553.797000	105553.793700	2	2	1.457938	106554.875100	106554.854800	108017.966500	108017.963000	CCNP001670	0
22	1	0.903313	110523.570700	110523.563600	111441.589200	111441.584900	2	1	0.505489	112442.658400	112442.653200	112953.473700	112953.470400	CCNP001670	1
23	1	0.443208	115459.140300	115459.133400	115913.769900	115913.765500	2	1	0.433814	116914.895500	116914.890300	117353.595600	117353.592400	CCNP001670	1
24	1	0.315070	119859.063100	119859.056500	120185.560900	120185.557800	3	2	1.386175	121186.668500	121186.663500	122577.942600	122577.939200	CCNP001670	0
25	1	0.361102	125083.471800	125083.465000	125465.530600	125465.526200	2	1	0.370384	126466.637000	126466.631800	126841.937300	126841.934000	CCNP001670	0
26	1	0.685449	129347.958300	129347.947400	130057.348400	130057.344700	2	1	2.169767	131058.454400	131058.449000	133233.676500	133233.673300	CCNP001670	1
27	1	2.223476	135739.506000	135739.497100	137977.269000	137977.265800	2	1	0.585708	138978.387900	138978.382600	139569.494500	139569.491500	CCNP001670	1
28	1	0.410816	142075.314800	142075.307700	142497.568000	142497.563900	3	1	1.121111	143498.638900	143498.633000	144625.428300	144625.425000	CCNP001670	1
29	1	0.433521	147131.330600	147131.313100	147585.361100	147585.357900	2	1	0.666313	148586.531600	148586.513100	149257.939100	149257.935800	CCNP001670	1
30	1	0.464267	151764.502100	151764.493500	152249.288800	152249.285200	3	1	1.457767	153250.433400	153250.414900	154713.352200	154713.348900	CCNP001670	1
31	1	0.564567	157218.554100	157218.548400	157801.624600	157801.621400	2	1	0.616568	158802.741000	158802.735100	159425.137200	159425.133600	CCNP001670	1
32	1	0.466150	161931.299700	161931.293200	162417.821200	162417.817900	2	1	0.553839	163418.989600	163418.984600	163977.638500	163977.635500	CCNP001670	1
33	1	0.386126	166483.616700	166483.611400	166889.919400	166889.916100	2	1	0.720755	167891.111400	167891.106200	168617.267300	168617.264200	CCNP001670	0
34	1	0.455572	171122.859400	171122.853500	171593.643100	171593.638900	3	2	1.688441	172594.859400	172594.840900	174289.478400	174289.474200	CCNP001670	0
35	1	0.932410	176795.178800	176795.173200	177737.578900	177737.575800	3	1	1.105949	178738.793600	178738.788200	179849.838300	179849.835000	CCNP001670	1
36	1	0.527626	182355.270600	182355.265100	182897.862100	182897.859000	3	1	0.697317	183899.054400	183899.049100	184601.689600	184601.686400	CCNP001670	1
37	2	0.569605	187107.244600	187107.223300	187690.082100	187690.078900	3	1	0.376773	188691.284600	188691.279300	189073.245200	189073.242000	CCNP001670	1
38	2	0.413327	191578.659700	191578.654100	192001.646800	192001.642500	3	1	0.571782	193002.649300	193002.644100	193579.441800	193579.437700	CCNP001670	1
39	2	0.393530	196085.702000	196085.696000	196497.537300	196497.534000	3	1	0.482026	197498.907100	197498.896600	197985.895300	197985.892100	CCNP001670	0
40	1	0.504959	200491.154100	200491.148400	201009.655800	201009.651800	3	2	1.768891	202010.921600	202010.916200	203785.304000	203785.300800	CCNP001670	0
41	1	0.617932	206291.028800	206291.023400	206921.873700	206921.870400	2	1	0.329481	207923.101100	207923.095600	208257.706700	208257.703400	CCNP001670	1
42	1	0.363755	210763.146600	210763.141000	211147.539500	211147.534900	2	1	0.368124	212148.713100	212148.702900	212521.898700	212521.895300	CCNP001670	1
43	1	0.323740	215027.698000	215027.692400	215361.588900	215361.585800	2	1	0.448576	216362.792700	216362.774200	216817.856300	216817.851900	CCNP001670	1
44	1	0.352120	219323.647000	219323.641100	219689.481500	219689.478500	3	1	1.004058	220690.660800	220690.655400	221699.936200	221699.932900	CCNP001670	1
45	1	0.436227	224205.487400	224205.481500	224657.590400	224657.586200	2	1	0.584541	225658.780400	225658.774700	226249.571000	226249.566900	CCNP001670	0
46	2	0.439425	228754.999700	228754.993700	229210.060800	229210.057500	2	2	1.769235	230211.246400	230211.228500	231985.805200	231985.802100	CCNP001670	0
47	1	0.785792	234491.533900	234491.528200	235289.383400	235289.380100	3	1	0.976667	236290.669600	236290.664400	237273.746700	237273.742500	CCNP001670	1
48	1	0.474459	239779.255400	239779.249500	240274.573300	240274.570000	2	1	0.624452	241275.767300	241275.761600	241905.539000	241905.535900	CCNP001670	1
49	1	0.563763	244410.935300	244410.929600	244985.751000	244985.746800	2	1	0.729743	245986.984200	245986.963800	246721.798100	246721.794800	CCNP001670	1
50	1	0.459912	249227.493500	249227.488000	249697.684100	249697.681000	2	1	0.521719	250699.152600	250699.147400	251225.757800	251225.754600	CCNP001670	1
51	1	0.536345	253732.178200	253732.171100	254289.655800	254289.652200	2	2	1.555900	255290.914600	255290.909000	256851.852700	256851.849300	CCNP001670	1
52	2	0.863050	259358.625800	259358.619400	260233.596800	260233.593500	2	2	1.104947	261234.968800	261234.963700	262345.838400	262345.835300	CCNP001670	0
53	2	0.723521	264852.273800	264852.268500	265593.838000	265593.834700	3	1	1.057491	266595.131000	266595.125700	267658.016400	267658.013200	CCNP001670	0
54	2	0.336746	270164.469700	270164.461300	270521.750500	270521.747300	3	2	0.554051	271523.016800	271523.011400	272082.152700	272082.149400	CCNP001670	1
55	1	0.477372	274587.920000	274587.914800	275081.398700	275081.395600	2	1	0.689594	276082.574300	276082.569000	276777.477500	276777.473200	CCNP001670	1
56	1	0.345369	279283.275300	279283.269600	279649.264600	279649.261400	2	1	0.418182	280650.558100	280650.552900	281074.102000	281074.097400	CCNP001670	1
57	1	0.309266	283579.713100	283579.706600	283897.626300	283897.622800	2	1	0.346338	284898.886200	284898.865700	285250.159700	285250.156300	CCNP001670	1
58	1	0.326746	287755.850100	287755.844500	288097.508800	288097.505600	2	1	0.625785	289098.848000	289098.842800	289729.729900	289729.726700	CCNP001670	1
59	2	0.539322	292235.561200	292235.555300	292793.921100	292793.917600	3	1	1.513674	293795.306900	293795.301900	295314.364800	295314.360300	CCNP001670	0
60	2	0.308689	297820.119300	297820.113800	298145.912400	298145.909200	3	1	1.577360	299147.382200	299147.375500	300729.987300	300729.983900	CCNP001670	0
61	2	0.459938	303236.036700	303236.029500	303714.173100	303714.168500	3	2	0.361027	304715.495200	304715.489100	305081.623700	305081.620600	CCNP001670	1
62	1	0.364483	307587.322500	307587.316700	307969.568500	307969.564100	2	1	0.425343	308971.001500	308970.996000	309401.451500	309401.448400	CCNP001670	0
63	1	0.320958	311907.279000	311907.273100	312241.763400	312241.760100	2	2	0.481115	313243.084800	313243.079600	313729.603500	313729.600200	CCNP001670	0
64	2	0.676092	316235.509000	316235.503800	316929.927600	316929.924400	3	1	1.712278	317931.337300	317931.331000	319649.722700	319649.718400	CCNP001670	1
65	2	1.094734	322155.535500	322155.528900	323265.498400	323265.495300	3	1	0.481333	324266.874100	324266.869100	324753.629500	324753.625400	CCNP001670	1
66	2	0.499220	327259.418800	327259.413200	327769.830900	327769.827700	3	2	1.961177	328771.176500	328771.171400	330737.365700	330737.362600	CCNP001670	1
67	1	1.144833	354763.333600	354763.326900	355913.306700	355913.302400	2	1	0.658802	356914.551100	356914.544500	357579.204400	357579.201100	CCNP001670	1
68	1	0.409303	360085.495600	360085.490600	360513.431500	360513.428400	2	1	0.529654	361514.513700	361514.508000	362049.841900	362049.838700	CCNP001670	0
69	1	0.951097	364555.358400	364555.353000	365521.592300	365521.587800	2	1	0.649116	366522.522900	366522.518200	367177.824000	367177.819800	CCNP001670	0
70	2	0.840751	369683.493700	369683.487300	370545.357700	370545.354700	2	2	1.490329	371546.259300	371546.254400	373041.691600	373041.688400	CCNP001670	1
71	2	0.626569	375547.563800	375547.553800	376193.841900	376193.838600	3	1	0.345966	377194.707400	377194.702800	377545.820600	377545.817100	CCNP001670	1
72	2	0.386370	380051.609300	380051.603900	380458.057800	380458.054500	3	1	0.482156	381458.930700	381458.925900	381946.470200	381946.466900	CCNP001670	1
73	1	0.508114	384452.806700	384452.801200	384977.540600	384977.537100	2	1	0.680537	385978.771700	385978.766500	386666.264200	386666.259900	CCNP001670	1
74	1	0.429773	389171.909300	389171.903300	389617.585100	389617.582000	3	2	1.226431	390618.722500	390618.717300	391849.949900	391849.946500	CCNP001670	0
75	1	0.848140	394355.242600	394355.236300	395218.040600	395218.037300	2	2	1.681833	396218.910300	396218.905500	397905.662600	397905.659500	CCNP001670	0
76	1	0.300330	400411.222200	400411.216600	400721.611200	400721.608100	2	1	0.354157	401722.529600	401722.519000	402081.858000	402081.854700	CCNP001670	0
77	2	0.358812	404587.419000	404587.398700	404961.756300	404961.752900	3	2	0.530075	405962.640300	405962.635200	406497.965800	406497.962400	CCNP001670	0
78	2	0.341011	409003.622600	409003.616600	409361.682600	409361.679200	3	1	1.585038	410362.620800	410362.615800	411953.263000	411953.259200	CCNP001670	1
79	2	0.268805	414458.691800	414458.686300	414738.281200	414738.278000	3	1	0.409608	415739.169000	415739.164500	416154.032400	416154.029200	CCNP001670	1
80	2	0.274342	418659.422800	418659.417200	418945.430100	418945.426700	3	1	0.322408	419946.329300	419946.324400	420273.824100	420273.821000	CCNP001670	0
81	1	1.133392	422779.355300	422779.349700	423921.519200	423921.515700	2	1	0.714183	424922.522500	424922.508100	425641.913700	425641.910500	CCNP001670	0
82	1	0.390958	428148.331100	428148.293900	428546.058700	428546.055400	3	2	1.872293	429546.933400	429546.928300	431425.775600	431425.771400	CCNP001670	1
83	1	0.611063	433931.883600	433931.873900	434561.776700	434561.773500	3	2	1.705836	435562.637000	435562.631800	437273.868000	437273.864800	CCNP001670	0
84	1	0.621071	439779.261700	439779.249100	440410.143900	440410.140500	3	1	1.057814	441410.993000	441410.988000	442473.933700	442473.930200	CCNP001670	0
85	2	0.353820	444979.563200	444979.557600	445354.144600	445354.141400	3	2	1.176740	446355.027800	446355.023300	447537.724600	447537.720500	CCNP001670	1
86	2	0.419797	450043.134500	450043.127900	450474.075300	450474.071900	2	1	0.713791	451474.954400	451474.949600	452193.949700	452193.946400	CCNP001670	0
87	2	0.282181	454699.427100	454699.421300	455002.074600	455002.056700	3	2	0.817520	456002.913900	456002.908900	456825.581300	456825.578000	CCNP001670	0
88	1	0.387725	459331.239400	459331.223600	459737.803100	459737.800000	2	2	0.954092	460738.727700	460738.723000	461698.047100	461698.043800	CCNP001670	1
89	1	0.413355	464203.538600	464203.532900	464633.619800	464633.616000	3	2	1.474679	465634.467000	465634.462300	467114.262600	467114.258300	CCNP001670	0
90	1	0.331177	469619.126000	469619.120400	469969.652400	469969.648100	3	1	0.729896	470970.533400	470970.528500	471705.446400	471705.443300	CCNP001670	0
91	1	0.341865	474210.583100	474210.577000	474561.841500	474561.838200	3	2	1.633587	475562.701800	475562.697000	477201.931900	477201.928600	CCNP001670	1
92	1	0.360890	479707.459800	479707.453800	480081.496800	480081.493200	3	2	1.417372	481082.375800	481082.371000	482505.773100	482505.768900	CCNP001670	1
93	1	0.323838	485011.173700	485011.168300	485345.513000	485345.508900	2	1	1.289842	486346.375700	486346.371000	487641.548700	487641.545400	CCNP001670	0
94	1	0.354696	490147.021700	490147.015900	490521.776700	490521.773400	2	2	0.322024	491522.916900	491522.910900	491849.972500	491849.968100	CCNP001670	0
95	2	0.239975	494355.359700	494355.354100	494609.882300	494609.879100	3	1	1.336695	495610.824200	495610.819300	496953.937400	496953.933100	CCNP001670	0
96	2	0.242797	499459.224200	499459.218600	499714.180100	499714.175500	3	2	0.313472	500715.039700	500715.034900	501034.065900	501034.062500	CCNP001670	0
97	2	0.336113	503539.507900	503539.502000	503889.545700	503889.542600	3	2	0.313427	504890.440700	504890.435800	505209.266200	505209.262600	CCNP001670	1
98	2	0.331437	507715.491900	507715.483700	508065.634700	508065.631500	2	2	1.370233	509066.566500	509066.561900	510441.990300	510441.986900	CCNP001670	0
99	2	0.354343	512948.453300	512948.443600	513321.874800	513321.871700	3	2	0.817808	514322.772200	514322.767300	515145.452200	515145.449000	CCNP001670	0
100	1	0.363039	517650.936800	517650.916000	518033.945000	518033.941700	2	2	0.513556	519034.858800	519034.854000	519555.970600	519555.966500	CCNP001670	0
101	1	0.329986	522062.013100	522062.007500	522401.618000	522401.613800	3	1	1.234611	523402.479000	523402.474300	524642.169300	524642.166100	CCNP001670	0
102	1	0.435085	527147.904400	527147.887300	527602.064000	527602.060700	2	2	0.658323	528602.972200	528602.967400	529266.149300	529266.146100	CCNP001670	0
103	1	0.342150	531771.816900	531771.810900	532129.713900	532129.709600	2	1	0.593181	533130.674800	533130.661200	533729.654200	533729.650000	CCNP001670	1
104	1	0.331652	536235.179500	536235.174200	536586.221500	536586.218100	2	1	0.337853	537587.052300	537587.047600	537930.033300	537930.030100	CCNP001670	1
105	1	0.308247	540436.140600	540436.104000	540761.657900	540761.654400	3	1	0.409310	541762.552000	541762.546500	542177.735400	542177.731100	CCNP001670	0
106	2	0.328673	544683.465300	544683.459400	545033.542500	545033.539100	2	1	0.537204	546034.490100	546034.485200	546577.805000	546577.800800	CCNP001670	1
107	2	0.274965	549083.130700	549083.125100	549378.183100	549378.179800	3	2	0.352808	550379.069900	550379.065300	550738.355400	550738.351200	CCNP001670	0
108	2	0.250187	553244.235700	553244.230600	553505.808600	553505.804500	2	1	0.353498	554506.684800	554506.679900	554865.406400	554865.403400	CCNP001670	1
109	1	0.679633	557370.508300	557370.503400	558065.726100	558065.722600	2	1	0.385946	559066.620700	559066.615800	559457.570600	559457.567400	CCNP001670	0
110	1	0.413902	561962.884100	561962.878800	562385.983800	562385.980600	3	1	0.976828	563386.914300	563386.909400	564369.358300	564369.354100	CCNP001670	1
111	1	0.674952	566874.625100	566874.619800	567561.520900	567561.517400	2	1	0.769966	568562.415900	568562.411100	569337.662600	569337.659500	CCNP001670	1
112	1	0.523794	571842.971400	571842.966200	572377.968200	572377.965000	2	1	0.650529	573378.711800	573378.707100	574034.097500	574034.094200	CCNP001670	0
113	1	0.575500	576539.627000	576539.621500	577129.752400	577129.749200	3	1	1.409818	578130.980100	578130.967100	579546.057700	579546.054500	CCNP001670	1
114	2	0.746587	582051.662100	582051.655800	582817.800400	582817.797200	3	1	1.393965	583818.734000	583818.729200	585218.071300	585218.067800	CCNP001670	1
115	2	0.376279	587723.310600	587723.305400	588113.636400	588113.632000	2	2	1.401903	589114.748700	589114.742800	590522.056000	590522.052700	CCNP001670	0
116	2	0.404805	593027.284300	593027.265700	593442.046500	593442.043300	3	1	1.769056	594442.885600	594442.880800	596217.258100	596217.254400	CCNP001670	0
117	2	0.352643	598722.778200	598722.759300	599089.435700	599089.432300	3	2	0.569922	600090.310000	600090.304400	600665.477300	600665.473800	CCNP001670	0
118	1	0.357696	603170.957700	603170.950100	603545.544900	603545.541400	2	1	0.801372	604546.391600	604546.386700	605353.816500	605353.812200	CCNP001670	0
119	1	0.387109	607858.898700	607858.893400	608257.299400	608257.294900	3	2	0.490781	609258.186100	609258.181400	609754.044400	609754.041100	CCNP001670	0
120	1	0.449463	612258.974200	612258.968200	612721.655700	612721.651400	2	1	0.609159	613722.533100	613722.528000	614337.492200	614337.487900	CCNP001670	0
121	2	0.292780	616842.832300	616842.826900	617146.233700	617146.230500	2	1	0.761396	618147.043200	618147.038800	618914.235400	618914.231400	CCNP001670	0
122	2	0.298814	621419.928600	621419.910100	621737.791900	621737.787800	3	1	1.217553	622738.708300	622738.703600	623961.549100	623961.546000	CCNP001670	1
123	2	0.299648	626467.134300	626467.128900	626786.006700	626786.003400	3	1	0.321206	627786.849400	627786.844700	628113.787600	628113.783500	CCNP001670	1
124	2	0.347893	630619.304300	630619.281800	630985.880600	630985.877500	3	1	0.433713	631986.739500	631986.734700	632425.521900	632425.518800	CCNP001670	0
125	2	0.387179	634930.411200	634930.405100	635337.964200	635337.960900	2	1	1.002207	636338.854200	636338.849800	637346.191700	637346.188400	CCNP001670	1
126	2	0.274284	639851.770700	639851.765100	640145.872100	640145.868800	3	1	0.617557	641146.804000	641146.799300	641769.686600	641769.683500	CCNP001670	1
127	2	0.370864	644274.590200	644274.576600	644657.635200	644657.632000	3	1	0.537165	645658.574000	645658.569200	646201.725400	646201.721100	CCNP001670	1
128	2	0.256823	648706.896800	648706.891400	648977.840200	648977.837000	2	1	0.625753	649978.745300	649978.738600	650609.675700	650609.672500	CCNP001670	0
129	2	0.235401	653115.814200	653115.804000	653369.596200	653369.593100	3	2	0.386481	654370.417000	654370.412200	654762.133100	654762.129700	CCNP001670	1
130	1	0.328866	657267.402400	657267.397100	657617.286000	657617.282500	3	2	0.570411	658618.154000	658618.149100	659193.939500	659193.936200	CCNP001670	1
131	2	0.361731	661699.570900	661699.565200	662081.798200	662081.795100	3	1	0.770828	663082.675700	663082.670700	663858.089900	663858.086400	CCNP001670	1
132	1	0.353644	666363.533100	666363.526700	666737.806500	666737.803200	2	1	0.417442	667738.665000	667738.660400	668161.776400	668161.772200	CCNP001670	0
133	1	0.882473	670667.426600	670667.421100	671570.247500	671570.244100	2	2	0.322101	672571.108000	672571.102900	672898.375900	672898.372400	CCNP001670	1
134	2	0.756194	678615.689500	678615.668400	679377.390300	679377.386400	3	2	0.562596	680378.281100	680378.261500	680946.092700	680946.089100	CCNP001670	0
135	2	0.490710	683451.550600	683451.545100	683962.191600	683962.188200	3	1	1.442097	684963.078100	684963.073500	686410.190700	686410.187300	CCNP001670	0
136	2	0.976925	688916.232100	688916.225500	689913.703100	689913.699900	2	1	0.832224	690914.856600	690914.851100	691753.506600	691753.503000	CCNP001670	0
137	1	0.321816	694259.089300	694259.084000	694593.881300	694593.877100	2	2	0.522277	695594.773900	695594.769200	696121.948100	696121.944900	CCNP001670	0
138	1	0.581276	698627.109100	698627.103700	699218.146900	699218.143500	3	1	1.256681	700219.084900	700219.080200	701481.328800	701481.325200	CCNP001670	1
139	1	0.397046	703986.650000	703986.644400	704402.085600	704402.082300	2	1	0.889155	705403.071200	705403.065300	706297.490100	706297.486800	CCNP001670	0
140	2	0.333880	708803.208500	708803.202800	709153.922600	709153.919300	3	1	0.673457	710154.723900	710154.716400	710833.340000	710833.336900	CCNP001670	1
141	2	0.351134	713338.736900	713338.731700	713706.274400	713706.271200	3	1	0.465774	714707.130200	714707.125200	715178.227900	715178.224700	CCNP001670	0
142	2	0.321388	717683.888100	717683.882700	718025.390800	718025.387300	3	2	0.658509	719026.290500	719026.285800	719690.278600	719690.275300	CCNP001670	0
143	1	0.603571	722195.575400	722195.569700	722809.966100	722809.961900	2	2	0.368990	723810.918900	723810.913200	724185.331800	724185.327400	CCNP001670	1
144	1	0.337202	726690.813500	726690.808200	727042.057800	727042.054300	3	2	1.369413	728042.962800	728042.958100	729417.790700	729417.787600	CCNP001670	0
145	1	0.271906	731923.429400	731923.408900	732210.188200	732210.184900	2	1	0.344734	733211.085800	733211.081000	733561.491200	733561.487500	CCNP001670	1
146	1	0.691265	736067.048700	736067.042800	736777.824700	736777.821300	2	1	0.297489	737778.693000	737778.673500	738081.702800	738081.699400	CCNP001670	0
147	1	0.308844	740587.013200	740587.007600	740913.861000	740913.857700	2	1	0.265157	741915.394500	741915.387500	742185.931200	742185.927800	CCNP001670	0
148	1	0.344919	744691.329800	744691.324400	745049.500800	745049.497000	2	1	0.290779	746050.320200	746050.315500	746345.784200	746345.781000	CCNP001670	0
149	2	0.322244	748851.083900	748851.078100	749193.762000	749193.758700	2	1	1.529948	750194.660900	750194.656000	751729.781500	751729.778400	CCNP001670	0
150	2	0.348200	754235.444600	754235.439300	754601.617800	754601.614600	2	2	0.561345	755602.480900	755602.476000	756169.624900	756169.620300	CCNP001670	1
151	1	0.969050	758675.200300	758675.194900	759657.353000	759657.349900	3	2	1.652882	760658.222800	760658.218100	762315.981400	762315.978100	CCNP001670	1
152	1	0.244496	764821.676900	764821.671200	765081.707600	765081.704000	2	2	0.506132	766082.619100	766082.614200	766593.531700	766593.528500	CCNP001670	1
153	1	0.680744	769099.658800	769099.652000	769802.006100	769802.002900	2	2	0.385719	770802.931300	770802.926600	771193.625600	771193.622600	CCNP001670	1
154	1	0.322054	773699.501100	773699.493900	774042.565600	774042.562300	2	2	0.320510	775043.402000	775043.397100	775369.994000	775369.989600	CCNP001670	1
155	1	0.401506	777875.373400	777875.367800	778289.898100	778289.894900	3	1	1.041156	779290.793800	779290.789300	780337.849200	780337.845100	CCNP001670	0
156	1	0.235637	782843.307200	782843.300900	783089.730600	783089.727500	2	2	0.730335	784090.635100	784090.627000	784825.687000	784825.683900	CCNP001670	0
157	1	0.282740	787330.582200	787330.576500	787633.937000	787633.933800	2	1	0.338262	788634.881000	788634.875800	788977.937500	788977.933900	CCNP001670	0
158	2	0.210744	791483.588100	791483.582400	791714.063400	791714.060200	3	1	0.328837	792715.075700	792715.070500	793049.955300	793049.952000	CCNP001670	1
159	2	0.350308	795555.358200	795555.352500	795921.805800	795921.802400	3	1	0.778212	796922.640900	796922.636400	797706.119700	797706.116400	CCNP001670	1
160	2	0.302118	800211.327600	800211.321700	800522.212600	800522.209100	2	2	1.825693	801523.225100	801523.220000	803353.898100	803353.894700	CCNP001670	0
161	2	0.322329	805859.551000	805859.545300	806193.907700	806193.904300	3	1	1.194194	807194.709300	807194.704400	808394.229900	808394.226600	CCNP001670	1
162	2	0.521258	810900.191300	810900.185500	811441.758700	811441.755600	3	1	0.722358	812442.648800	812442.644100	813169.871600	813169.868600	CCNP001670	1
163	2	0.312939	815675.752600	815675.746400	816001.894500	816001.890300	2	1	2.202054	817002.751600	817002.746700	819209.941500	819209.938300	CCNP001670	0
164	2	0.334805	821716.348400	821716.338200	822057.957400	822057.954200	3	1	0.897057	823058.856100	823058.851500	823961.489100	823961.485600	CCNP001670	1
165	2	0.225695	826467.309900	826467.304400	826713.794200	826713.791000	3	1	0.665102	827714.887300	827714.881300	828386.195300	828386.192100	CCNP001670	1
166	2	0.282505	830891.401100	830891.395000	831186.113900	831186.110500	3	1	0.497631	832186.978500	832186.973900	832690.015100	832690.011900	CCNP001670	0
167	2	0.219987	835195.471700	835195.466300	835426.007800	835426.004500	3	2	0.880811	836426.910400	836426.905800	837313.398300	837313.394800	CCNP001670	0
168	1	0.349281	839818.799000	839818.793300	840186.012300	840186.007600	2	2	0.922117	841186.938900	841186.934300	842114.076800	842114.073500	CCNP001670	0
169	1	0.347391	844620.144000	844620.138700	844985.950100	844985.946900	2	1	0.449783	845986.822300	845986.817900	846441.876600	846441.873400	CCNP001670	0
170	2	0.369152	848947.708000	848947.702100	849337.521900	849337.518600	2	2	0.378180	850338.338200	850338.333400	850721.645100	850721.642100	CCNP001670	1
171	2	0.586687	853227.160800	853227.155500	853825.918500	853825.914300	3	2	1.298108	854826.814500	854826.809200	856130.122800	856130.119500	CCNP001670	1
172	2	0.394950	858635.843900	858635.810900	859050.041400	859050.038200	3	2	0.809958	860051.022500	860051.016800	860866.315200	860866.311900	CCNP001670	1
173	2	0.405319	863371.820900	863371.815500	863793.796800	863793.793600	3	1	0.969649	864795.019400	864795.011700	865769.754600	865769.751500	CCNP001670	1
174	2	0.410036	868275.113200	868275.107700	868698.398700	868698.394500	3	2	0.337225	869699.351300	869699.346600	870041.563300	870041.560200	CCNP001670	0
175	1	0.362830	872547.195800	872547.176800	872930.223400	872930.220100	2	2	1.137989	873931.163700	873931.158600	875074.304600	875074.301300	CCNP001670	0
176	2	0.629471	877579.684100	877579.678600	878217.641800	878217.638500	2	1	0.314269	879218.543500	879218.538800	879537.626700	879537.623700	CCNP001670	1
177	2	0.323484	882042.877300	882042.872000	882378.333600	882378.330400	2	1	0.451375	883379.248700	883379.243800	883835.727700	883835.724500	CCNP001670	0
178	1	0.576544	886341.219300	886341.214100	886930.476400	886930.472900	3	1	0.843086	887931.595900	887931.575100	888779.924700	888779.921300	CCNP001670	1
179	1	0.264216	891285.303200	891285.297800	891570.037900	891570.033400	2	2	0.841581	892570.941100	892570.936400	893417.701600	893417.698600	CCNP001670	1
180	1	0.536620	895923.206000	895923.200100	896473.767700	896473.764500	3	1	0.833837	897474.755400	897474.749800	898313.836800	898313.833600	CCNP001670	1
181	1	0.490498	900819.984300	900819.979100	901329.956400	901329.952200	2	2	0.825732	902330.856200	902330.851700	903162.190100	903162.186800	CCNP001670	1
182	1	0.435019	905667.934100	905667.928700	906122.013600	906122.010400	2	2	0.738207	907122.916800	907122.912200	907866.415200	907866.412000	CCNP001670	0
183	2	0.285941	910372.094500	910372.088800	910674.086500	910674.083200	3	1	0.745650	911675.048100	911675.035900	912425.755900	912425.752800	CCNP001670	1
184	2	0.371626	914930.726500	914930.720500	915322.485100	915322.481700	3	2	0.816495	916323.399900	916323.395400	917145.543800	917145.540300	CCNP001670	1
185	2	0.402136	919650.961900	919650.942600	920073.872600	920073.869400	3	1	0.848915	921074.778100	921074.773300	921930.062700	921930.058700	CCNP001670	0
186	2	0.386323	924435.549900	924435.544600	924841.549100	924841.545500	3	1	0.874182	925842.454600	925842.449600	926721.694500	926721.691300	CCNP001670	0
187	1	0.475332	929227.214000	929227.208700	929713.739800	929713.736200	2	1	0.793904	930714.985000	930714.964200	931514.144300	931514.140800	CCNP001670	1
188	2	0.395357	934019.920600	934019.915100	934433.738100	934433.733800	3	2	0.338638	935434.614800	935434.610100	935778.457600	935778.454400	CCNP001670	0
189	1	0.512864	938284.025700	938284.004200	938817.886700	938817.883500	2	2	0.522687	939818.812300	939818.807700	940346.779700	940346.776500	CCNP001670	0
190	1	0.355405	942852.795800	942852.790600	943226.366800	943226.363500	3	1	0.265495	944227.182100	944227.177400	944497.879600	944497.876000	CCNP001670	1
191	1	0.380466	947003.544200	947003.538800	947402.152500	947402.148800	2	1	1.065681	948402.990500	948402.985600	949473.708400	949473.705300	CCNP001670	0
192	2	0.412399	951979.268300	951979.260800	952401.800200	952401.794800	3	1	0.850031	953402.675400	953402.670900	954257.655900	954257.652700	CCNP001670	1
193	2	0.580682	956763.024700	956763.019200	957353.868700	957353.865500	3	1	0.954399	958354.744900	958354.740300	959314.248400	959314.245100	CCNP001670	0
194	2	0.436661	961820.513500	961820.508000	962273.679500	962273.675900	3	2	0.266343	963274.492400	963274.487600	963545.731900	963545.728700	CCNP001670	0
195	2	0.282472	966051.630800	966051.625300	966354.336000	966354.332600	3	1	0.297752	967355.272800	967355.267500	967658.153400	967658.150100	CCNP001670	0
196	1	0.285754	970164.200900	970164.195400	970457.741600	970457.738100	2	2	1.082194	971458.502300	971458.497300	972545.583600	972545.580100	CCNP001670	1
197	1	0.634850	975050.811000	975050.805600	975706.072500	975706.069100	2	2	0.369114	976706.914600	976706.909800	977081.846300	977081.841500	CCNP001670	0
198	2	0.341879	979586.857100	979586.851300	979945.411500	979945.407900	2	1	0.649778	980946.736100	980946.725700	981601.528700	981601.525400	CCNP001670	1
199	2	0.407935	984106.965300	984106.958900	984529.680000	984529.676700	3	1	0.562605	985530.468000	985530.463300	986098.432700	986098.428100	CCNP001670	0
200	2	0.277134	988604.311400	988604.303300	988897.734900	988897.731900	2	2	0.409344	989899.316500	989899.310500	990314.202400	990314.198800	CCNP001670	0