
trial	choice1	rts1	stim1ons_sl	stim1ons_ms	choice1ons_sl	choice1ons_ms	state	choice2	rts2	stim2ons_sl	stim2ons_ms	choice2ons_sl	choice2ons_ms	SC_ID	won

1	2	2.209222	350.069800	350.063900	2569.073000	2569.069200	3	2	1.752359	3572.668400	3572.662600	5329.306800	5329.302700	CCNP001604	1
2	2	0.390272	7833.998800	7833.993500	8233.715800	8233.712200	3	2	0.586534	9235.299200	9235.293700	9825.051700	9825.048500	CCNP001604	0
3	2	0.344916	12330.109400	12330.104100	12688.824100	12688.820500	3	2	0.371504	13690.292600	13690.286700	14065.196100	14065.192600	CCNP001604	0
4	2	0.248486	16571.340400	16571.335000	16825.119300	16825.116100	3	1	1.009786	17827.033800	17827.026900	18840.819100	18840.815500	CCNP001604	0
5	2	1.129480	21348.602400	21348.596500	22489.511600	22489.508100	3	1	0.415295	23492.862600	23492.856100	23913.033700	23913.030400	CCNP001604	1
6	2	0.734781	26421.506200	26421.499800	27161.392600	27161.389400	3	2	2.547339	28162.478700	28162.473200	30713.206800	30713.203600	CCNP001604	0
7	1	0.518762	33216.470600	33216.463700	33745.522800	33745.519400	2	1	2.658111	34746.731600	34746.725300	37409.979100	37409.975300	CCNP001604	1
8	1	0.778384	39913.382600	39913.377300	40705.125900	40705.122400	3	2	1.684180	41706.042800	41706.038100	43393.594100	43393.590100	CCNP001604	1
9	1	1.195529	45897.289600	45897.284400	47105.561200	47105.557600	2	1	0.579053	48106.541300	48106.536400	48689.058500	48689.055400	CCNP001604	1
10	1	0.484881	51193.145200	51193.117100	51681.164300	51681.161200	3	2	1.635704	52682.114800	52682.110300	54321.451100	54321.447500	CCNP001604	0
11	1	0.370730	56824.844300	56824.836800	57200.769200	57200.765500	2	1	0.876042	58201.752500	58201.748000	59081.110200	59081.107000	CCNP001604	1
12	1	0.343978	61584.424200	61584.418800	61937.544600	61937.541200	3	2	2.051552	62938.440000	62938.434800	64993.228200	64993.224600	CCNP001604	1
13	1	0.451088	67496.531300	67496.525500	67961.373500	67961.370200	2	1	0.395309	68962.363100	68962.358500	69361.057300	69361.054000	CCNP001604	0
14	1	0.348091	71864.483300	71864.477100	72224.966900	72224.963700	2	1	0.329895	73226.694800	73226.687800	73561.238100	73561.233900	CCNP001604	0
15	1	0.468216	76064.927700	76064.921100	76545.082900	76545.079600	3	1	1.579445	77546.033800	77546.029300	79128.915400	79128.912200	CCNP001604	1
16	1	0.158112	81632.774000	81632.768900	81801.465900	81801.458000	3	2	2.091693	82802.379200	82802.374400	84897.464400	84897.460800	CCNP001604	1
17	1	0.246115	87400.998900	87400.992600	87656.770300	87656.766500	3	2	2.291795	88657.828800	88657.823200	90953.400000	90953.396600	CCNP001604	0
18	1	0.388463	93456.757900	93456.752300	93849.494900	93849.491500	3	2	2.027647	94850.507700	94850.503300	96881.557500	96881.554300	CCNP001604	0
19	2	0.088020	99384.892200	99384.886000	99481.631000	99481.627500	3	1	1.283168	100482.570400	100482.565600	101768.945600	101768.942300	CCNP001604	1
20	1	0.092990	104272.447600	104272.442300	104369.568000	104369.564700	2	2	1.307306	105370.692500	105370.687600	106681.302200	106681.299100	CCNP001604	1
21	1	0.199532	109184.930800	109184.924600	109393.194100	109393.190600	2	2	0.907635	110394.265300	110394.260100	111305.230100	111305.226900	CCNP001604	0
22	1	0.268308	113808.985700	113808.979100	114081.113000	114081.109900	3	1	1.099693	115082.117400	115082.113000	116185.082700	116185.079600	CCNP001604	0
23	1	0.251360	118688.591600	118688.586500	118944.882900	118944.879700	2	1	0.524290	119945.884200	119945.879400	120473.434000	120473.430600	CCNP001604	1
24	1	0.199895	122976.925000	122976.920100	123193.560800	123193.557500	3	2	1.995418	124194.594300	124194.589700	126193.444400	126193.440700	CCNP001604	1
25	1	0.595331	128696.926800	128696.921500	129305.487500	129305.484000	2	1	0.283325	130306.533200	130306.528400	130593.402100	130593.398700	CCNP001604	1
26	1	0.322684	133096.786300	133096.781300	133433.269000	133433.264700	2	1	0.339507	134434.263900	134434.259000	134777.117700	134777.113400	CCNP001604	0
27	1	0.395409	137280.518700	137280.512400	137689.156200	137689.153000	3	2	2.034529	138690.167400	138690.162800	140728.703200	140728.699500	CCNP001604	1
28	1	0.821807	143232.192700	143232.187700	144065.448000	144065.444700	2	1	0.755405	145066.487500	145066.482800	145825.225100	145825.221900	CCNP001604	1
29	1	0.176738	148329.636200	148329.631000	148520.911600	148520.908100	3	1	0.276230	149521.998600	149521.993500	149801.602400	149801.599200	CCNP001604	1
30	1	0.091508	152305.142500	152305.137400	152401.719100	152401.715800	3	1	0.306111	153402.813900	153402.809000	153713.251600	153713.247400	CCNP001604	0
31	1	0.398174	156216.899200	156216.892700	156624.940000	156624.936800	2	1	0.602637	157626.459300	157626.453400	158232.949600	158232.946400	CCNP001604	0
32	1	0.233046	160736.562900	160736.557800	160976.845600	160976.842300	2	1	0.715875	161977.975300	161977.970200	162697.209000	162697.205800	CCNP001604	0
33	1	0.198796	165201.190300	165201.183900	165409.210800	165409.193200	2	2	0.938607	166410.513000	166410.507800	167352.841200	167352.837700	CCNP001604	0
34	1	0.380679	169856.670700	169856.665200	170241.231100	170241.227900	2	2	2.035045	171242.400100	171242.395200	173280.998000	173280.994700	CCNP001604	1
35	1	0.895621	175784.551100	175784.546200	176689.404400	176689.401200	2	1	1.059033	177690.522500	177690.517800	178753.253200	178753.249800	CCNP001604	0
36	1	0.315791	181257.019700	181257.014000	181577.055600	181577.052400	2	2	1.083683	182578.236500	182578.230600	183665.250300	183665.247100	CCNP001604	1
37	2	0.280389	186168.872800	186168.867600	186457.165200	186457.162000	3	2	1.010708	187458.310100	187458.304800	188472.864500	188472.861300	CCNP001604	0
38	2	0.471282	190977.300400	190977.293000	191465.142200	191465.139100	3	2	0.723396	192466.261500	192466.256600	193193.235300	193193.231600	CCNP001604	1
39	2	0.243116	195696.655000	195696.649900	195953.274500	195953.271300	3	2	0.530797	196954.401500	196954.396600	197488.965200	197488.961600	CCNP001604	0
40	2	0.189150	199993.406200	199993.399100	200185.734700	200185.731200	3	1	0.282712	201186.858300	201186.853200	201472.943700	201472.940700	CCNP001604	1
41	1	0.231695	203977.121500	203977.114200	204225.286700	204225.283200	3	1	0.251002	205226.476200	205226.470700	205480.977800	205480.974500	CCNP001604	1
42	1	0.199883	207984.784200	207984.778100	208193.480600	208193.477300	2	2	1.139457	209194.564700	209194.559500	210337.173000	210337.169900	CCNP001604	1
43	1	0.265932	212840.800700	212840.795600	213112.902600	213112.899000	2	1	0.619844	214114.099400	214114.094200	214737.398800	214737.395400	CCNP001604	0
44	1	0.306432	217241.388800	217241.382600	217553.220900	217553.217600	2	1	0.211437	218554.390000	218554.384500	218769.086200	218769.083000	CCNP001604	0
45	1	0.012052	221273.067200	221273.061700	221288.927400	221288.924000	3	1	0.251968	222290.214800	222290.209600	222545.585300	222545.581800	CCNP001604	1
46	1	0.219476	225049.742500	225049.733900	225281.896700	225281.892500	3	1	0.290648	226283.039300	226283.034200	226577.156100	226577.152500	CCNP001604	0
47	1	0.179580	229081.050800	229081.044300	229273.191800	229273.188700	2	1	0.451153	230274.364900	230274.360000	230729.145500	230729.142400	CCNP001604	1
48	1	0.212446	233232.865400	233232.859900	233456.867000	233456.863300	3	2	1.187453	234458.016700	234458.011500	235649.120900	235649.117700	CCNP001604	1
49	1	0.256723	238152.824700	238152.819400	238417.196800	238417.193500	2	1	0.779256	239418.525700	239418.519500	240200.995000	240200.991800	CCNP001604	0
50	1	0.283322	242704.616300	242704.610800	242993.753800	242993.750500	2	2	1.130243	243994.915500	243994.910500	245129.056500	245129.052200	CCNP001604	0
51	1	0.102002	247632.654100	247632.648900	247745.686500	247745.683100	2	1	0.306782	248746.905600	248746.900600	249056.966500	249056.963100	CCNP001604	0
52	1	0.239482	251561.229700	251561.223700	251817.291700	251817.287600	2	1	0.298803	252818.506700	252818.501300	253120.802200	253120.798500	CCNP001604	1
53	1	0.306969	255624.535300	255624.530300	255936.984000	255936.980300	2	2	1.739536	256938.170800	256938.165800	258680.929400	258680.925800	CCNP001604	1
54	1	0.230715	261184.654700	261184.649600	261424.870200	261424.866700	2	1	0.347160	262426.361600	262426.353500	262776.988300	262776.985000	CCNP001604	1
55	1	0.242537	265280.676100	265280.656400	265538.880100	265538.876000	3	1	0.728518	266540.160100	266540.155100	267272.930700	267272.926900	CCNP001604	1
56	1	0.478932	269777.071700	269777.066300	270272.982800	270272.979600	3	1	1.123296	271274.232800	271274.227400	272401.118400	272401.115300	CCNP001604	1
57	1	0.035085	274904.693200	274904.688100	274945.446700	274945.443300	2	1	0.771376	275946.713700	275946.695700	276721.505100	276721.501500	CCNP001604	0
58	1	0.010393	279225.431000	279225.425500	279241.125200	279241.121200	2	2	2.067221	280242.348900	280242.343800	282313.032700	282313.029600	CCNP001604	1
59	1	0.221973	284816.685300	284816.680100	285049.193000	285049.189800	2	1	0.475311	286050.412800	286050.407500	286529.043500	286529.040300	CCNP001604	0
60	1	0.237521	289033.063600	289033.058300	289281.474100	289281.470700	3	2	1.379882	290282.775100	290282.770200	291666.075000	291666.071500	CCNP001604	0
61	1	0.263320	294169.903900	294169.898800	294441.253900	294441.249600	2	1	0.787333	295442.525500	295442.520300	296233.267800	296233.264500	CCNP001604	1
62	1	0.049889	298737.156500	298737.151500	298793.705200	298793.701900	3	1	0.242668	299794.881300	299794.875200	300041.036000	300041.032900	CCNP001604	1
63	1	0.328777	302544.832400	302544.827600	302889.757800	302889.753300	2	1	0.298285	303890.707600	303890.702400	304193.349000	304193.344900	CCNP001604	1
64	1	0.099233	306697.114300	306697.108600	306809.700000	306809.694200	2	2	0.339074	307810.651600	307810.646700	308153.232600	308153.229400	CCNP001604	1
65	1	0.273616	310657.831300	310657.826200	310937.236300	310937.232200	3	1	0.235785	311938.163400	311938.158500	312177.172400	312177.169200	CCNP001604	1
66	2	2.115264	314681.079400	314681.074100	316809.162000	316809.158800	2	1	0.266771	317810.416500	317810.410500	318081.007000	318081.003900	CCNP001604	1
67	1	1.055574	326910.824600	326910.816000	327969.137200	327969.134000	3	1	0.354843	328970.146200	328970.141500	329328.918600	329328.915100	CCNP001604	1
68	1	0.332677	331832.390100	331832.385100	332177.034900	332177.030700	2	1	0.715873	333178.046900	333178.027100	333897.264200	333897.261000	CCNP001604	0
69	1	0.246686	336401.812100	336401.806700	336657.428000	336657.424600	2	2	0.739221	337658.391000	337658.385700	338401.158700	338401.155400	CCNP001604	0
70	1	0.274709	340904.670300	340904.665300	341185.185000	341185.181900	2	1	1.051382	342186.134500	342186.129700	343240.904200	343240.900800	CCNP001604	1
71	2	0.480628	345744.543500	345744.538100	346241.232400	346241.229200	2	1	0.251883	347242.098500	347242.093400	347497.348200	347497.344900	CCNP001604	0
72	1	0.277871	350001.606800	350001.601800	350288.810100	350288.806400	2	1	0.244190	351289.739100	351289.734500	351537.420200	351537.417000	CCNP001604	1
73	1	0.268092	354040.894000	354040.881400	354312.974400	354312.971200	2	2	0.522521	355315.039600	355315.027600	355841.083900	355841.080700	CCNP001604	1
74	1	0.160908	358344.595400	358344.590300	358521.399400	358521.396000	2	1	0.275497	359522.356800	359522.352000	359801.154000	359801.150900	CCNP001604	0
75	1	0.458487	362305.481200	362305.476100	362769.160800	362769.157500	2	1	0.267708	363770.145300	363770.140100	364041.165600	364041.162500	CCNP001604	1
76	1	0.121138	366544.733300	366544.728000	366681.773400	366681.770100	3	1	1.098913	367682.807900	367682.788400	368785.029600	368785.026500	CCNP001604	0
77	1	0.387401	371288.592400	371288.587400	371681.195000	371681.191500	2	1	0.235787	372682.181200	372682.176200	372921.192100	372921.189000	CCNP001604	1
78	1	0.035384	375424.816500	375424.811200	375465.748300	375465.745000	2	2	0.795062	376466.691600	376466.686800	377265.099500	377265.096400	CCNP001604	1
79	1	0.343878	379769.372200	379769.367100	380121.011200	380121.007900	2	1	0.460117	381121.928300	381121.924000	381585.342800	381585.339500	CCNP001604	0
80	1	0.282275	384089.557800	384089.552500	384377.145300	384377.141000	3	1	0.875449	385378.282700	385378.264000	386257.094400	386257.091200	CCNP001604	0
81	1	0.407238	388761.788100	388761.782700	389185.445500	389185.441400	3	1	1.979382	390186.406600	390186.401700	392169.257200	392169.253400	CCNP001604	1
82	1	0.371300	394673.176900	394673.171700	395049.580700	395049.577500	2	1	0.731293	396050.528000	396050.523500	396785.234000	396785.230800	CCNP001604	0
83	2	0.907284	399288.639000	399288.633800	400201.190600	400201.187400	3	2	0.275695	401202.143400	401202.138900	401481.239000	401481.235800	CCNP001604	1
84	1	1.566431	403984.695400	403984.690100	405560.867600	405560.864000	3	1	0.475818	406561.969600	406561.964600	407041.085000	407041.081900	CCNP001604	1
85	1	0.240460	409545.325000	409545.320100	409801.071500	409801.068200	3	2	0.691583	410802.123600	410802.118600	411496.963200	411496.959500	CCNP001604	0
86	1	0.158447	414000.262500	414000.257300	414169.170400	414169.167200	2	1	0.539326	415170.460600	415170.454200	415713.027400	415713.024300	CCNP001604	0
87	1	0.293724	418216.323300	418216.317800	418521.024300	418521.021100	2	1	0.299706	419521.935500	419521.930600	419825.018400	419825.015200	CCNP001604	0
88	1	0.249288	422329.798200	422329.790700	422593.528600	422593.524800	2	1	0.243562	423594.501100	423594.496100	423841.340700	423841.337400	CCNP001604	0
89	1	0.263886	426345.363100	426345.357900	426624.959600	426624.955900	2	1	0.419964	427625.756000	427625.751100	428049.147900	428049.144800	CCNP001604	0
90	1	0.239790	430553.600000	430553.594600	430800.988900	430800.985300	2	2	0.723090	431802.051600	431802.046800	432528.970700	432528.967100	CCNP001604	1
91	1	0.464011	435033.765900	435033.760800	435507.842800	435507.839400	2	1	0.272820	436508.787200	436508.782000	436785.246100	436785.242900	CCNP001604	0
92	1	0.114296	439289.685500	439289.680600	439409.001900	439408.997700	3	1	0.978146	440410.253700	440410.246000	441393.000700	441392.979400	CCNP001604	0
93	1	0.426594	443897.013400	443897.008000	444337.184600	444337.181500	2	2	0.579597	445338.140100	445338.134700	445920.929900	445920.926700	CCNP001604	0
94	2	0.235942	448424.976900	448424.970400	448665.157000	448665.153800	3	2	0.243633	449666.194300	449666.189500	449913.073000	449913.069800	CCNP001604	0
95	2	0.308905	452416.860000	452416.850000	452736.931900	452736.928000	3	1	0.275170	453737.819800	453737.815300	454016.933900	454016.930200	CCNP001604	0
96	2	0.089122	456520.720000	456520.714700	456617.284300	456617.280100	3	2	0.275622	457618.177800	457618.173100	457897.314900	457897.311700	CCNP001604	1
97	2	0.342639	460401.318200	460401.312900	460753.190400	460753.187100	3	1	1.067538	461754.092900	461754.088100	462825.101300	462825.097900	CCNP001604	0
98	2	0.328394	465329.777900	465329.772700	465672.923400	465672.919900	3	2	0.299074	466673.860500	466673.855600	466977.465100	466977.461100	CCNP001604	1
99	2	0.115373	469481.852600	469481.847300	469609.283300	469609.280000	3	2	1.490375	470611.201300	470611.193800	472104.864100	472104.860900	CCNP001604	1
100	2	0.099962	474609.437100	474609.419100	474713.691700	474713.688400	3	1	0.346296	475714.573300	475714.568700	476064.959900	476064.956400	CCNP001604	1
101	1	0.248316	478568.652100	478568.646700	478825.548800	478825.545500	2	2	0.298356	479827.075500	479827.070100	480129.589300	480129.586000	CCNP001604	1
102	1	0.372565	482633.641800	482633.636400	483017.413100	483017.408900	3	2	1.547407	484018.281500	484018.277000	485569.075900	485569.072200	CCNP001604	0
103	1	0.116299	488072.618700	488072.613300	488193.661400	488193.657300	2	2	0.490996	489194.638400	489194.633400	489688.982200	489688.979000	CCNP001604	0
104	1	0.326438	492194.186800	492194.179800	492537.227900	492537.224700	2	1	0.266887	493538.184000	493538.178900	493808.870900	493808.867200	CCNP001604	0
105	1	0.344925	496313.897300	496313.892000	496673.244800	496673.240800	3	1	1.059226	497674.175000	497674.170000	498737.033100	498737.029800	CCNP001604	1
106	1	0.419292	501240.817300	501240.812300	501664.942500	501664.938900	2	2	0.516079	502665.887400	502665.882700	503185.533500	503185.530100	CCNP001604	0
107	1	0.346561	505690.073900	505690.068800	506040.953000	506040.949300	3	1	0.235596	507041.965300	507041.960700	507281.177300	507281.174100	CCNP001604	1
108	1	0.375566	509784.797000	509784.791400	510169.695200	510169.691900	3	1	0.195564	511170.685100	511170.680000	511369.428200	511369.424900	CCNP001604	1
109	1	0.244388	513873.072200	513873.066900	514121.576500	514121.573100	2	1	0.651847	515122.531500	515122.526900	515777.860200	515777.856900	CCNP001604	0
110	1	0.427334	518282.506700	518282.501500	518721.293800	518721.290700	2	2	0.059778	519722.239700	519722.235400	519785.485300	519785.481900	CCNP001604	1
111	1	0.298471	522289.099600	522289.094400	522592.939200	522592.935500	2	1	0.267519	523594.163500	523594.157300	523865.289400	523865.286200	CCNP001604	0
112	1	0.263842	526370.228100	526370.222800	526641.377800	526641.374500	2	2	0.259265	527642.283600	527642.278900	527905.047700	527905.044500	CCNP001604	1
113	1	0.115356	530408.506800	530408.501600	530529.451800	530529.448500	2	2	0.555167	531530.458700	531530.454300	532089.082400	532089.079200	CCNP001604	0
114	1	0.004384	534592.718000	534592.712300	534601.726000	534601.722500	2	1	0.283016	535602.703800	535602.699200	535889.115100	535889.111900	CCNP001604	0
115	1	0.381575	538394.389100	538394.382900	538793.042600	538793.024300	3	2	0.987323	539794.159000	539794.151300	540785.051900	540785.048300	CCNP001604	0
116	1	0.665940	543289.701000	543289.695600	543960.865400	543960.861800	3	1	1.052810	544961.831000	544961.826300	546017.737600	546017.734300	CCNP001604	0
117	1	0.017681	548522.319600	548522.314100	548545.216800	548545.213400	2	2	0.339411	549546.325000	549546.318500	549889.246900	549889.243700	CCNP001604	1
118	2	0.418802	552392.662500	552392.657300	552816.999600	552816.996000	2	1	0.235663	553818.029000	553818.008900	554057.154000	554057.150800	CCNP001604	1
119	1	0.487762	556561.142600	556561.136600	557065.312600	557065.309500	3	2	0.243781	558066.308200	558066.303500	558313.347800	558313.344500	CCNP001604	0
120	1	0.181113	560817.918500	560817.913400	561009.476200	561009.472000	2	2	1.154628	562010.824300	562010.816600	563169.048800	563169.045700	CCNP001604	0
121	1	0.283620	565673.670900	565673.649800	565961.146700	565961.143500	2	1	0.052220	566962.154500	566962.149800	567017.654100	567017.650700	CCNP001604	0
122	2	0.449720	569521.415300	569521.410300	569977.114400	569977.111000	3	1	0.058983	570978.099000	570978.094400	571041.476500	571041.472300	CCNP001604	0
123	2	0.224831	573545.892600	573545.887500	573785.550700	573785.547300	3	2	0.188226	574786.486400	574786.481900	574977.966000	574977.962600	CCNP001604	0
124	2	0.003108	577482.408100	577482.403000	577497.368900	577497.365400	3	1	0.388134	578498.356100	578498.351000	578889.841300	578889.838000	CCNP001604	1
125	1	0.028745	581393.904100	581393.897200	581425.858700	581425.855300	2	1	0.202051	582427.143300	582427.133200	582633.507900	582633.504600	CCNP001604	1
126	1	0.249036	585136.942300	585136.937300	585393.459300	585393.453400	2	2	0.260057	586394.428600	586394.410800	586657.976400	586657.973100	CCNP001604	0
127	2	0.295803	589161.932000	589161.926500	589473.164800	589473.161100	3	1	0.338897	590474.088700	590474.084100	590816.945500	590816.941900	CCNP001604	0
128	1	0.169865	593320.987600	593320.982300	593497.183100	593497.179900	3	1	0.267913	594498.037200	594498.032100	594769.196300	594769.193100	CCNP001604	0
129	1	0.084296	597273.614000	597273.608900	597362.037400	597362.034200	2	1	1.107496	598362.982700	598362.977600	599473.683900	599473.680700	CCNP001604	0
130	2	1.094233	601978.629900	601978.624500	603088.915600	603088.912100	3	2	1.604022	604089.860000	604089.840000	605697.261700	605697.258500	CCNP001604	0
131	0	0.000000	608200.772100	608200.767100	0.000000	0.000000
132	1	0.717703	612204.631600	612204.626200	612928.960500	612928.957000	3	1	0.787943	613929.878300	613929.873500	614721.126500	614721.123300	CCNP001604	0
133	1	0.281581	617225.397900	617225.388300	617513.421100	617513.417000	3	1	0.915505	618514.354700	618514.350200	619433.352100	619433.348900	CCNP001604	1
134	2	1.187627	644739.073100	644739.066900	645929.321100	645929.317900	3	2	0.243914	646930.126100	646930.121200	647177.444400	647177.440400	CCNP001604	0
135	2	1.514691	649680.892400	649680.887100	651209.067500	651209.064200	3	1	1.003341	652210.254200	652210.242900	653217.015400	653217.011900	CCNP001604	1
136	2	0.153653	655720.551300	655720.546300	655881.279100	655881.276000	3	2	0.258658	656882.392800	656882.387300	657144.948200	657144.944500	CCNP001604	1
137	2	0.172412	659648.369300	659648.364100	659833.559300	659833.556000	3	1	0.227219	660834.602900	660834.597800	661065.168000	661065.164700	CCNP001604	1
138	2	0.207736	663568.705000	663568.698200	663785.234300	663785.231100	3	2	0.306873	664786.156500	664786.151800	665096.951400	665096.947000	CCNP001604	0
139	2	0.214543	667601.275800	667601.270600	667825.465700	667825.462400	3	2	0.194885	668826.449700	668826.445100	669025.080400	669025.077100	CCNP001604	0
140	1	0.055958	671528.601500	671528.596000	671601.567600	671601.563400	2	2	0.211464	672602.661300	672602.654100	672817.339400	672817.336300	CCNP001604	0
141	2	0.017868	675321.046100	675321.040600	675345.422200	675345.418700	3	1	0.179935	676346.423100	676346.418100	676529.755200	676529.751900	CCNP001604	0
142	2	0.212807	679034.457900	679034.452600	679257.062700	679257.053800	3	2	0.211919	680257.975000	680257.970000	680473.371700	680473.368500	CCNP001604	0
143	1	0.119402	682977.879800	682977.874500	683113.738500	683113.735100	2	1	0.139029	684114.670300	684114.650800	684256.980300	684256.977200	CCNP001604	0
144	1	0.303464	686761.353700	686761.348200	687081.247600	687081.244400	2	2	0.347758	688082.244400	688082.239400	688433.332200	688433.328900	CCNP001604	1
145	1	0.049298	690936.965900	690936.960700	690994.085200	690994.081000	2	2	0.194927	691995.029700	691995.009800	692193.224000	692193.220600	CCNP001604	0
146	1	0.345959	694697.708000	694697.703000	695057.035700	695057.032300	2	2	0.499266	696058.093900	696058.086900	696560.922900	696560.919800	CCNP001604	1
147	1	0.154673	699065.385700	699065.368000	699233.400600	699233.396500	2	1	0.283530	700234.390000	700234.385600	700521.262600	700521.259400	CCNP001604	0
148	1	0.850049	703024.937800	703024.932600	703881.300600	703881.297200	2	1	1.011731	704882.210500	704882.205900	705897.361400	705897.358200	CCNP001604	0
149	1	0.237351	708401.948800	708401.943800	708648.965600	708648.961900	2	2	0.788401	709649.924200	709649.919600	710441.697500	710441.693700	CCNP001604	0
150	2	0.367448	712945.293300	712945.288000	713329.064600	713329.060900	3	2	0.764036	714330.027600	714330.022700	715097.259300	715097.256100	CCNP001604	0
151	2	1.030151	717600.684600	717600.678200	718641.179100	718641.175700	3	2	0.682818	719642.121500	719642.116900	720329.121100	720329.116800	CCNP001604	1
152	2	1.333084	722834.179300	722834.174200	724177.520000	724177.516000	3	0	0.000000	725178.573700	725178.568800	0.000000	0.000000	CCNP001604 
153	1	1.629951	729181.942000	729181.936700	730825.446100	730825.441800	2	1	0.250811	731826.377500	731826.371600	732081.055800	732081.052700	CCNP001604	0
154	1	0.279128	734584.548400	734584.543400	734873.437600	734873.434500	2	1	0.219443	735874.345100	735874.340500	736097.272000	736097.268700	CCNP001604	1
155	1	2.726328	738600.757000	738600.751500	741337.307000	741337.303900	2	2	1.595866	742338.224900	742338.220400	743937.233000	743937.229800	CCNP001604	1
156	2	1.283800	746440.771100	746440.765300	747729.421000	747729.417800	3	2	1.131316	748730.392800	748730.388200	749865.091500	749865.088300	CCNP001604	0
157	2	0.255329	752368.631100	752368.626000	752633.180400	752633.177000	2	1	0.339878	753634.120400	753634.115800	753977.402000	753977.398400	CCNP001604	0
158	1	0.307010	756481.376200	756481.370900	756801.244500	756801.241400	3	2	0.235344	757802.204700	757802.200100	758040.982000	758040.978700	CCNP001604	0
159	1	0.648061	760544.811300	760544.802700	761209.120200	761209.116900	3	1	0.251473	762210.418900	762210.409300	762465.342600	762465.339400	CCNP001604	1
160	1	0.046790	764969.572700	764969.567600	765025.269800	765025.265700	3	2	0.250642	766026.250500	766026.245900	766280.982400	766280.978900	CCNP001604	1
161	2	0.134966	768785.061600	768785.056600	768929.476900	768929.473600	2	1	0.275297	769930.439700	769930.435100	770209.336800	770209.333500	CCNP001604	1
162	2	0.113597	772714.067200	772714.061900	772841.322400	772841.319000	3	2	0.258677	773842.330700	773842.325900	774105.091800	774105.088300	CCNP001604	0
163	1	0.019430	776609.661200	776609.656100	776633.878300	776633.874900	3	2	0.210890	777635.113000	777635.106300	777849.448600	777849.445300	CCNP001604	0
164	2	0.088225	780353.353800	780353.348600	780449.236500	780449.233200	3	2	0.147835	781450.068300	781450.063400	781601.058300	781601.054900	CCNP001604	0
165	2	0.114491	784105.755900	784105.737300	784225.598800	784225.595400	2	2	0.458612	785226.563500	785226.558600	785689.422100	785689.419000	CCNP001604	1
166	2	0.156173	788193.909400	788193.901300	788353.894400	788353.891000	2	1	0.707261	789362.885500	789362.879600	790073.263500	790073.260300	CCNP001604	1
167	1	0.420426	792577.476900	792577.470800	793001.333400	793001.330200	2	1	0.242917	794002.273000	794002.267800	794249.083600	794249.080100	CCNP001604	0
168	1	0.239952	796752.704100	796752.698600	797001.279900	797001.276700	3	1	0.587408	798002.246600	798002.240700	798593.241500	798593.238000	CCNP001604	1
169	1	0.041446	801097.160500	801097.154900	801153.275700	801153.271500	2	2	0.266871	802154.211500	802154.206000	802425.205200	802425.200900	CCNP001604	1
170	1	0.136828	804928.769100	804928.764000	805081.206800	805081.203700	2	2	0.651489	806082.206200	806082.201300	806737.148000	806737.144800	CCNP001604	1
171	2	0.211735	809240.648900	809240.643900	809457.474500	809457.470300	2	1	0.203317	810458.462300	810458.457400	810665.234500	810665.231300	CCNP001604	1
172	2	0.135656	813169.462300	813169.457100	813313.659300	813313.655900	3	1	0.338784	814314.658500	814314.653700	814656.997700	814656.994100	CCNP001604	0
173	1	1.247549	817162.036700	817162.031200	818425.400200	818425.396900	3	1	0.827305	819426.392600	819426.388000	820257.320100	820257.316700	CCNP001604	1
174	2	0.302527	822761.217600	822761.212100	823080.989200	823080.985700	3	1	0.684020	824081.959500	824081.939800	824769.243100	824769.239900	CCNP001604	1
175	1	0.060019	827273.561600	827273.556500	827337.615200	827337.611800	2	2	0.699248	828338.573500	828338.568900	829041.494300	829041.490700	CCNP001604	1
176	1	0.336104	831545.425200	831545.418200	831897.261700	831897.258500	2	2	0.339490	832898.251300	832898.232000	833241.265500	833241.261500	CCNP001604	0
177	2	0.055381	835746.004000	835745.999300	835817.384600	835817.380500	3	1	0.267686	836818.391000	836818.386500	837089.332300	837089.329100	CCNP001604	1
178	1	0.235651	839593.055400	839593.050100	839833.263700	839833.260500	2	2	0.212343	840834.194700	840834.190200	841049.897000	841049.893600	CCNP001604	1
179	2	0.207818	843553.796200	843553.791200	843769.137300	843769.133600	3	1	0.252503	844769.969900	844769.964900	845025.767900	845025.764500	CCNP001604	0
180	2	0.080411	847530.687900	847530.682400	847625.128300	847625.123200	2	2	0.219963	848626.159500	848626.141700	848849.600100	848849.596700	CCNP001604	1
181	2	0.192077	851353.077000	851353.071200	851553.212000	851553.208900	2	1	1.075624	852554.210800	852554.206100	853633.187200	853633.183900	CCNP001604	1
182	2	0.321289	856136.678400	856136.672400	856465.874300	856465.871000	3	2	0.691078	857466.833400	857466.828900	858161.394300	858161.390900	CCNP001604	0
183	2	0.259652	860665.620700	860665.615800	860937.332700	860937.329500	3	2	0.275638	861938.280800	861938.273600	862217.264900	862217.261700	CCNP001604	1
184	1	0.569627	864720.809400	864720.803500	865297.376000	865297.372600	2	2	1.243691	866298.310500	866298.304600	867545.387900	867545.384600	CCNP001604	1
185	2	0.324661	870049.198700	870049.193100	870385.899200	870385.895900	3	1	0.778750	871386.910800	871386.892400	872169.087300	872169.084000	CCNP001604	1
186	1	0.955419	874672.892300	874672.887500	875633.138800	875633.135700	2	2	0.867764	876634.181400	876634.176300	877505.402500	877505.399200	CCNP001604	0
187	1	0.250681	880008.684700	880008.679200	880265.265600	880265.262500	2	2	0.891168	881266.212200	881266.207500	882160.944200	882160.940600	CCNP001604	1
188	1	0.323058	884664.630500	884664.625400	885001.100200	885001.097000	2	1	0.228146	886002.046400	886002.041800	886233.519300	886233.516100	CCNP001604	1
189	2	0.231940	888737.118400	888737.112500	888977.093600	888977.088200	3	2	0.947443	889977.968700	889977.964300	890929.110300	890929.107000	CCNP001604	0
190	2	0.252646	893433.719500	893433.714600	893697.129300	893697.126100	3	1	0.323736	894698.150800	894698.143200	895025.304300	895025.301100	CCNP001604	0
191	1	0.049076	897529.073800	897529.068600	897594.277700	897594.273600	2	2	0.801863	898595.175700	898595.171100	899401.091300	899401.087800	CCNP001604	1
192	1	0.146285	901904.503500	901904.498300	902057.611700	902057.608400	2	1	0.250920	903058.609500	903058.604900	903313.031900	903313.028700	CCNP001604	1
193	2	0.301523	905817.130500	905817.125100	906129.515600	906129.512200	3	1	0.714461	907130.462300	907130.457500	907849.021900	907849.018400	CCNP001604	0
194	2	0.288004	910353.224700	910353.219600	910649.321600	910649.318400	2	2	0.244322	911650.316800	911650.312200	911897.886800	911897.883600	CCNP001604	1
195	2	0.613282	914401.975400	914401.970100	915025.014800	915025.011200	2	1	1.035788	916025.964200	916025.958800	917065.230900	917065.227600	CCNP001604	0
196	2	0.095896	919569.798700	919569.793200	919673.787900	919673.784300	2	2	0.307617	920674.739100	920674.715200	920985.843900	920985.840500	CCNP001604	1
197	2	0.538809	923489.812000	923489.806800	924033.324900	924033.321600	2	2	0.450954	925034.287600	925034.282700	925489.040100	925489.036400	CCNP001604	1
198	2	0.395984	927993.535700	927993.516900	928393.981200	928393.976700	2	2	0.411311	929394.943100	929394.938200	929809.658400	929809.655100	CCNP001604	0
199	2	0.368287	932314.727000	932314.721800	932697.051000	932697.047500	2	1	1.195168	933697.983300	933697.979100	934897.356000	934897.351800	CCNP001604	1
200	2	0.238164	937401.217800	937401.210100	937649.788800	937649.785400	2	2	1.587224	938650.730400	938650.725800	940241.290000	940241.286700	CCNP001604	1