
trial	choice1	rts1	stim1ons_sl	stim1ons_ms	choice1ons_sl	choice1ons_ms	state	choice2	rts2	stim2ons_sl	stim2ons_ms	choice2ons_sl	choice2ons_ms	SC_ID	won

1	2	1.189376	314.233300	314.219500	1506.952000	1506.948100	3	2	0.662981	2513.248400	2513.241000	3179.581400	3179.578300	CCNP001684	0
2	2	0.497043	5686.457700	5686.452200	6195.217200	6195.214100	3	1	0.450618	7196.855500	7196.840900	7651.598700	7651.595200	CCNP001684	1
3	2	0.358633	10156.439500	10156.433300	10523.276500	10523.273400	3	1	0.259269	11524.847800	11524.842700	11787.548300	11787.545000	CCNP001684	1
4	2	0.232729	14293.919100	14293.914200	14531.190500	14531.186300	3	1	0.219211	15532.830600	15532.824900	15755.799800	15755.796300	CCNP001684	0
5	1	0.362171	18262.008400	18262.002800	18626.927500	18626.923000	2	2	0.367274	19631.523200	19631.513400	20003.064100	20003.060600	CCNP001684	0
6	1	0.360781	22510.838200	22510.833100	22875.686100	22875.682700	2	1	0.251536	23876.704100	23876.699100	24131.458400	24131.455000	CCNP001684	1
7	1	0.347525	26634.872200	26634.866900	26995.512400	26995.509300	2	1	0.219431	27996.699500	27996.694200	28219.550500	28219.547100	CCNP001684	1
8	1	0.223938	30722.827300	30722.816600	30955.458800	30955.455400	3	1	0.258372	31957.079500	31957.072200	32219.137000	32219.133600	CCNP001684	1
9	1	0.216181	34722.778600	34722.773600	34947.721900	34947.717900	3	1	0.267295	35948.967200	35948.960900	36219.288900	36219.285700	CCNP001684	1
10	1	0.336012	38723.125000	38723.120100	39067.324100	39067.321000	2	1	0.300688	40068.387900	40068.381900	40372.514100	40372.510900	CCNP001684	0
11	2	0.346058	42876.739500	42876.731500	43227.532300	43227.529000	3	1	0.283299	44228.606000	44228.600600	44515.403100	44515.399800	CCNP001684	1
12	2	0.284368	47019.049400	47019.030600	47315.686200	47315.682900	3	1	0.211237	48316.798700	48316.780400	48531.541800	48531.538300	CCNP001684	0
13	2	0.219234	51035.117500	51035.112200	51267.485200	51267.481900	2	1	0.211487	52268.904900	52268.899500	52483.622400	52483.618900	CCNP001684	1
14	2	0.341720	54987.095000	54987.089900	55339.789400	55339.786100	2	1	0.242178	56341.103600	56341.096200	56587.112000	56587.108400	CCNP001684	1
15	1	0.217478	59090.600700	59090.595600	59315.880100	59315.876800	2	1	0.267289	60316.897600	60316.892900	60587.672200	60587.668900	CCNP001684	1
16	1	0.185038	63091.304400	63091.285200	63283.097100	63283.094000	3	1	0.235581	64284.231200	64284.211100	64523.253700	64523.250300	CCNP001684	1
17	1	0.251440	67026.719400	67026.714200	67283.111200	67283.107800	2	1	0.227891	68284.151300	68284.146600	68515.340700	68515.337500	CCNP001684	1
18	1	0.139803	71018.988100	71018.982900	71171.501200	71171.497700	3	1	0.227640	72172.586700	72172.581100	72403.739000	72403.735500	CCNP001684	1
19	1	0.176345	74907.350500	74907.344900	75091.260200	75091.257100	3	1	0.179989	76092.348700	76092.343500	76275.647600	76275.644100	CCNP001684	1
20	2	0.162251	78779.433400	78779.427700	78947.781000	78947.776400	2	1	0.258965	79948.826600	79948.821300	80211.273900	80211.270700	CCNP001684	0
21	2	0.032201	82715.031800	82715.026300	82763.960000	82763.954500	3	1	0.299173	83765.144100	83765.139000	84067.797700	84067.794400	CCNP001684	1
22	2	0.222571	86571.384100	86571.377600	86803.948200	86803.944800	3	1	0.258757	87805.093900	87805.088400	88067.375800	88067.372600	CCNP001684	1
23	2	0.214388	90571.033800	90571.027100	90795.775500	90795.772200	3	1	0.243538	91796.820400	91796.814900	92043.746100	92043.742900	CCNP001684	0
24	2	0.236464	94547.818000	94547.811700	94787.435700	94787.431900	3	1	0.243279	95788.601200	95788.596000	96035.282100	96035.278900	CCNP001684	1
25	2	0.248012	98538.722900	98538.717800	98796.931000	98796.926500	3	1	0.192752	99798.132300	99798.126400	99995.147600	99995.144100	CCNP001684	1
26	2	0.112686	102498.825400	102498.819500	102627.478900	102627.475400	3	1	0.138549	103628.598800	103628.580600	103771.435100	103771.430800	CCNP001684	1
27	2	0.169719	106274.805800	106274.800700	106451.348900	106451.345800	2	1	0.195438	107452.469100	107452.450300	107651.200400	107651.197300	CCNP001684	1
28	1	0.038751	110154.783900	110154.777700	110203.415900	110203.412600	2	1	0.211586	111204.663800	111204.658600	111419.462200	111419.459100	CCNP001684	1
29	1	0.215549	113923.080500	113923.075600	114147.548400	114147.542700	2	1	0.210646	115148.707700	115148.702300	115363.116000	115363.112400	CCNP001684	1
30	1	0.321724	117867.584900	117867.579500	118203.391200	118203.386800	3	1	0.235328	119204.604700	119204.599800	119443.372100	119443.368900	CCNP001684	0
31	2	0.364929	121946.814700	121946.808700	122315.325300	122315.321800	3	2	0.218656	123316.472100	123316.466600	123539.176100	123539.172600	CCNP001684	0
32	1	0.211409	126043.096100	126043.090800	126259.584600	126259.581400	2	1	0.203794	127260.764700	127260.759500	127467.694000	127467.690700	CCNP001684	1
33	1	0.206126	129971.180900	129971.175300	130187.518900	130187.515500	2	1	0.227359	131188.669600	131188.664400	131419.297900	131419.294800	CCNP001684	0
34	1	0.207058	133922.924000	133922.918900	134139.177900	134139.174500	2	2	0.244000	135140.398200	135140.393000	135387.643300	135387.639900	CCNP001684	0
35	2	0.256364	137891.254100	137891.248400	138155.121000	138155.117500	2	1	0.196030	139156.323600	139156.317800	139355.578500	139355.575100	CCNP001684	0
36	2	0.194396	141859.328600	141859.323500	142059.348200	142059.345100	2	2	0.411762	143060.562700	143060.557600	143475.481300	143475.478200	CCNP001684	1
37	2	0.355215	145979.063800	145979.058700	146339.650900	146339.647700	3	1	0.810518	147340.787800	147340.782600	148155.423500	148155.419400	CCNP001684	1
38	2	0.218856	150659.051800	150659.046500	150883.926500	150883.923400	3	1	0.354868	151885.033000	151885.027700	152243.184300	152243.181100	CCNP001684	0
39	1	0.204791	154746.883300	154746.878200	154955.811300	154955.807500	3	2	0.243087	155957.034300	155957.029300	156203.440500	156203.437100	CCNP001684	1
40	1	0.216187	158707.050900	158707.045900	158931.441000	158931.435100	2	2	0.251673	159932.590000	159932.584800	160187.341400	160187.338200	CCNP001684	0
41	2	0.081506	162690.997700	162690.992600	162779.674900	162779.671500	2	2	0.259155	163781.050100	163781.044100	164043.418000	164043.414900	CCNP001684	0
42	2	0.212623	166547.083300	166547.078200	166763.516800	166763.513500	3	2	0.234792	167764.637700	167764.632200	168003.328700	168003.325600	CCNP001684	0
43	2	0.312313	170507.006200	170506.997600	170827.337200	170827.334100	3	2	0.268055	171828.424400	171828.419100	172099.853500	172099.849900	CCNP001684	0
44	2	0.213002	174603.626000	174603.621100	174827.852700	174827.849300	3	1	0.210907	175829.043300	175829.037400	176043.418100	176043.415200	CCNP001684	1
45	2	0.084315	178547.120200	178547.115200	178635.478200	178635.474500	2	1	0.252332	179636.604300	179636.599300	179892.106900	179892.103600	CCNP001684	1
46	2	0.234663	182395.605600	182395.600000	182635.402700	182635.399600	3	1	0.228083	183636.574200	183636.569300	183867.924100	183867.920900	CCNP001684	0
47	1	0.310377	186371.538000	186371.532700	186691.910200	186691.906900	2	1	0.187141	187693.116900	187693.111600	187883.497600	187883.494300	CCNP001684	1
48	1	0.277448	190387.386600	190387.381000	190675.721100	190675.717600	3	1	0.235277	191676.843200	191676.837900	191915.391400	191915.388100	CCNP001684	1
49	1	0.012165	194419.083900	194419.078700	194443.719200	194443.715800	2	1	0.139018	195444.903900	195444.898700	195587.298900	195587.295900	CCNP001684	0
50	1	0.177269	198091.021200	198091.015900	198275.509200	198275.505800	2	2	0.267353	199276.739800	199276.735000	199547.579700	199547.564200	CCNP001684	1
51	1	0.242468	202051.379100	202051.373900	202307.460900	202307.457400	2	2	0.259220	203308.828600	203308.823400	203571.334000	203571.330800	CCNP001684	1
52	1	0.202288	206074.907200	206074.902100	206283.916500	206283.913300	3	2	0.250902	207285.163400	207285.158100	207539.586000	207539.582900	CCNP001684	0
53	1	0.203082	210043.246600	210043.241400	210251.413100	210251.409600	3	1	0.531472	211252.718900	211252.713900	211787.590800	211787.587500	CCNP001684	1
54	1	0.192767	214291.390600	214291.385300	214491.253700	214491.250500	3	1	0.522821	215492.548000	215492.543000	216019.451800	216019.447500	CCNP001684	1
55	1	0.183838	218523.167700	218523.162100	218715.744600	218715.741300	3	1	0.466328	219717.045400	219717.027300	220187.250100	220187.246400	CCNP001684	1
56	1	0.225165	222691.083800	222691.078600	222923.336500	222923.333300	3	1	0.402843	223925.869100	223925.850100	224331.877500	224331.874100	CCNP001684	1
57	1	0.050303	226835.736600	226835.731200	226899.381300	226899.377000	3	1	0.435450	227900.712700	227900.707300	228339.424800	228339.421300	CCNP001684	1
58	1	0.195092	230843.197900	230843.193200	231043.578600	231043.575200	2	2	0.715233	232044.907900	232044.902800	232763.553400	232763.550300	CCNP001684	0
59	1	0.225714	235267.492700	235267.488000	235507.324800	235507.321100	2	2	0.641167	236517.171700	236517.138400	237163.277900	237163.274400	CCNP001684	1
60	2	0.225889	239667.594900	239667.589500	239907.766900	239907.763600	3	1	0.234205	240909.069700	240909.064200	241147.159800	241147.156100	CCNP001684	0
61	1	0.226354	243650.999000	243650.993900	243891.298000	243891.294800	3	2	0.339705	244892.507400	244892.502200	245235.501800	245235.498800	CCNP001684	0
62	2	0.223251	247739.437100	247739.431900	247971.560400	247971.557200	3	1	0.459376	248972.783000	248972.778000	249435.531700	249435.527900	CCNP001684	0
63	1	0.119037	251939.273800	251939.268600	252067.442500	252067.439300	3	1	0.603284	253068.828100	253068.823200	253675.532200	253675.528600	CCNP001684	1
64	1	0.355128	256179.298800	256179.293000	256539.225100	256539.222000	2	2	0.339438	257540.610100	257540.604900	257883.530100	257883.526900	CCNP001684	0
65	1	0.397060	260387.344600	260387.339600	260795.603500	260795.600200	3	1	0.602987	261796.934600	261796.929300	262403.385800	262403.382700	CCNP001684	1
66	1	0.367992	264907.171000	264907.165900	265283.167200	265283.164000	3	1	0.426756	266284.396800	266284.391600	266715.330500	266715.326100	CCNP001684	1
67	1	0.595529	272229.058300	272229.037400	272827.652700	272827.649300	2	1	0.395300	273828.527000	273828.522300	274227.320700	274227.317400	CCNP001684	0
68	1	0.220786	276731.020600	276731.012700	276955.225900	276955.222700	2	2	0.339261	277956.116600	277956.112000	278299.174400	278299.170800	CCNP001684	0
69	2	0.260355	280802.621700	280802.616700	281075.516500	281075.513400	2	1	0.243503	282076.469100	282076.464500	282323.249400	282323.246200	CCNP001684	1
70	2	0.355472	284826.737200	284826.731600	285187.360400	285187.357300	3	1	0.315714	286188.274400	286188.270000	286507.229400	286507.226200	CCNP001684	1
71	2	0.228325	289010.610300	289010.605300	289243.362000	289243.358500	3	1	0.363459	290244.569300	290244.562200	290611.625200	290611.622000	CCNP001684	1
72	2	0.247761	293115.417900	293115.412400	293379.570100	293379.566800	2	1	0.898938	294380.396000	294380.391100	295283.346600	295283.343000	CCNP001684	1
73	2	0.420901	297786.737200	297786.732100	298219.304400	298219.301100	3	1	0.379451	299220.274600	299220.269400	299603.228800	299603.225100	CCNP001684	0
74	2	0.224327	302106.787000	302106.781900	302339.537600	302339.534300	3	1	0.243393	303340.456600	303340.451800	303587.327800	303587.324500	CCNP001684	0
75	2	0.233047	306090.844800	306090.839400	306331.434400	306331.430700	3	2	0.244153	307332.469000	307332.463600	307579.753700	307579.750300	CCNP001684	0
76	1	0.233251	310083.187400	310083.182300	310331.617600	310331.614200	2	2	0.266948	311332.503100	311332.498800	311603.159600	311603.156100	CCNP001684	0
77	1	0.192454	314106.554600	314106.548900	314307.696100	314307.692800	3	1	0.203583	315308.578000	315308.573300	315515.411100	315515.408000	CCNP001684	1
78	1	0.195355	318018.750400	318018.744900	318227.353300	318227.350300	2	1	0.235905	319228.153400	319228.148000	319467.438000	319467.434800	CCNP001684	0
79	2	0.197137	321971.115900	321971.110800	322179.292300	322179.289100	3	1	0.130860	323180.306600	323180.301900	323315.588700	323315.584500	CCNP001684	0
80	2	0.195406	325819.031000	325819.026100	326027.484000	326027.480700	3	2	0.268182	327028.377400	327028.373000	327299.791700	327299.788400	CCNP001684	1
81	2	0.188168	329803.227200	329803.221900	330003.205800	330003.202700	2	2	1.364000	331004.078700	331004.074100	332371.377300	332371.373700	CCNP001684	1
82	2	0.257723	334875.103700	334875.098600	335139.546000	335139.542900	2	2	0.252015	336140.508700	336140.503700	336395.845600	336395.842200	CCNP001684	1
83	1	0.192724	338899.365300	338899.359900	339107.836200	339107.832900	2	2	0.251326	340108.759300	340108.754800	340363.464400	340363.461300	CCNP001684	1
84	1	0.185984	342867.538500	342867.533500	343067.673000	343067.669700	2	2	0.251388	344068.622800	344068.617600	344323.341100	344323.338000	CCNP001684	1
85	1	0.226894	346826.801500	346826.796400	347059.164000	347059.160600	2	2	0.228438	348059.980000	348059.975400	348291.648100	348291.644800	CCNP001684	1
86	1	0.091911	350795.244600	350795.239800	350891.459600	350891.456400	2	2	0.179792	351892.360700	351892.355900	352075.518900	352075.515900	CCNP001684	1
87	1	0.180636	354578.946100	354578.940300	354763.393200	354763.389900	2	2	0.219504	355764.631900	355764.626100	355987.431900	355987.428800	CCNP001684	0
88	1	0.025198	358490.762500	358490.757500	358523.853700	358523.850300	2	2	0.107893	359524.807900	359524.803300	359636.069100	359636.065800	CCNP001684	1
89	1	0.006997	362139.611500	362139.605700	362155.462400	362155.458700	3	2	0.050770	363156.481600	363156.475100	363211.532000	363211.527900	CCNP001684	1
90	1	0.160210	365715.200200	365715.194700	365892.037000	365892.033700	2	2	0.163804	366892.970700	366892.965700	367060.051800	367060.048400	CCNP001684	0
91	1	0.299389	369563.449200	369563.443300	369867.222200	369867.218900	2	2	0.251880	370868.221800	370868.216700	371123.510200	371123.506700	CCNP001684	0
92	2	0.370899	373627.158700	373627.153700	374003.240500	374003.237000	3	2	0.196311	375004.243500	375004.223900	375203.883300	375203.880000	CCNP001684	1
93	2	0.208706	377707.213800	377707.208900	377923.750900	377923.747600	2	2	0.251507	378924.703500	378924.698900	379179.497200	379179.494100	CCNP001684	1
94	2	0.033317	381682.832500	381682.827100	381731.716000	381731.712700	3	2	0.099581	382732.608300	382732.603900	382835.516900	382835.513400	CCNP001684	0
95	1	0.334706	385339.755100	385339.749500	385683.369100	385683.365900	2	2	0.140446	386684.288400	386684.283700	386828.012600	386828.009300	CCNP001684	0
96	1	0.156125	389331.685500	389331.679900	389491.508000	389491.504700	2	1	0.171423	390492.366600	390492.362100	390667.386800	390667.383300	CCNP001684	1
97	1	0.037719	393170.547500	393170.542100	393219.670600	393219.666900	2	1	0.196299	394220.457900	394220.453100	394421.628000	394421.623700	CCNP001684	0
98	2	0.031595	396925.002800	396924.997800	396963.753700	396963.750400	3	2	0.227159	397965.186200	397965.180200	398195.741300	398195.738000	CCNP001684	0
99	2	0.167719	400699.245000	400699.240000	400883.238700	400883.235100	3	1	0.132011	401884.145400	401884.140700	402019.476300	402019.473000	CCNP001684	1
100	2	0.103783	404522.786800	404522.781700	404635.593700	404635.590600	3	1	0.083080	405636.503800	405636.496400	405723.447400	405723.443300	CCNP001684	1
101	2	0.115831	408226.918600	408226.913500	408348.136700	408348.131800	3	1	0.011007	409349.204400	409349.199500	409363.534200	409363.531000	CCNP001684	1
102	2	0.257438	411868.117900	411868.113000	412139.439200	412139.436000	2	1	0.123138	413140.333900	413140.329200	413267.497700	413267.493400	CCNP001684	0
103	2	0.373851	415771.509100	415771.500300	416155.756100	416155.752900	3	1	0.306568	417156.629000	417156.624400	417467.199300	417467.195800	CCNP001684	0
104	2	0.292811	419970.695300	419970.684200	420275.574100	420275.570100	3	1	0.323946	421276.378800	421276.374100	421603.620300	421603.617000	CCNP001684	0
105	2	0.199313	424107.720800	424107.715800	424315.155900	424315.151600	3	2	0.148256	425316.131800	425316.127000	425468.295000	425468.290900	CCNP001684	1
106	2	0.029503	427971.792400	427971.787400	428011.617700	428011.614400	3	2	0.379366	429012.560000	429012.555100	429395.333000	429395.329800	CCNP001684	0
107	1	0.040133	431899.022400	431899.017100	431955.516200	431955.512900	2	2	0.211634	432956.424300	432956.419700	433171.511300	433171.507700	CCNP001684	0
108	1	0.153578	435674.938200	435674.933400	435835.446000	435835.442900	2	2	0.100537	436836.332900	436836.328300	436940.021200	436940.017900	CCNP001684	0
109	1	0.186966	439443.373700	439443.368500	439635.570300	439635.566900	2	1	0.187951	440636.539100	440636.534100	440827.787300	440827.784000	CCNP001684	1
110	1	0.308849	443331.307900	443331.301300	443643.760700	443643.757400	2	1	0.195542	444644.662700	444644.658000	444843.861400	444843.858200	CCNP001684	1
111	1	0.148073	447347.264200	447347.259400	447499.605300	447499.601800	3	1	0.091757	448500.588900	448500.583500	448595.860500	448595.857200	CCNP001684	1
112	1	0.080305	451099.346900	451099.341500	451195.835400	451195.832100	2	1	0.187477	452196.712900	452196.708300	452387.643900	452387.640400	CCNP001684	0
113	2	0.257052	454891.084300	454891.079200	455155.698400	455155.694600	3	1	0.170785	456156.690500	456156.685900	456331.491500	456331.487200	CCNP001684	0
114	1	0.218272	458834.884700	458834.879700	459067.392500	459067.388300	2	1	0.052106	460068.324700	460068.320100	460123.794600	460123.791300	CCNP001684	0
115	1	0.162880	462627.229500	462627.224400	462795.641900	462795.637700	2	2	0.171264	463796.629700	463796.624800	463971.310400	463971.307300	CCNP001684	1
116	1	0.321617	466474.942300	466474.897500	466803.592700	466803.589600	2	2	0.131862	467804.537900	467804.533300	467939.618900	467939.615400	CCNP001684	0
117	2	0.043027	470442.910800	470442.905500	470491.626900	470491.623600	2	2	0.019697	471492.475500	471492.470900	471515.517500	471515.513900	CCNP001684	1
118	2	0.082961	474019.136900	474019.129000	474115.422900	474115.418700	2	2	0.052028	475116.307500	475116.302900	475171.804100	475171.799800	CCNP001684	0
119	2	0.105795	477675.629000	477675.623900	477787.989400	477787.985800	3	2	0.235620	478788.847600	478788.843000	479027.659800	479027.656500	CCNP001684	0
120	2	0.117077	481531.529700	481531.523300	481651.936600	481651.933400	3	1	0.227181	482652.851500	482652.846800	482883.365100	482883.361900	CCNP001684	0
121	1	0.244844	485386.888900	485386.865300	485643.556600	485643.553400	3	1	0.155710	486644.451800	486644.447100	486803.559800	486803.556400	CCNP001684	0
122	1	0.192133	489307.230000	489307.223800	489507.434700	489507.401700	2	2	0.467068	490508.253000	490508.248500	490979.436700	490979.432300	CCNP001684	0
123	1	0.024978	493482.950600	493482.944200	493524.032500	493524.029000	3	1	0.259029	494524.905000	494524.900400	494787.527800	494787.524300	CCNP001684	1
124	1	0.136763	497290.993400	497290.988500	497435.562000	497435.558700	3	1	0.202923	498436.488500	498436.483700	498643.349100	498643.344800	CCNP001684	1
125	1	0.219977	501146.753500	501146.748300	501371.412400	501371.409100	3	1	0.267641	502372.320200	502372.314700	502643.850300	502643.846800	CCNP001684	0
126	1	0.028083	505147.383900	505147.378900	505179.716700	505179.713000	3	1	0.115980	506180.594900	506180.590200	506299.925300	506299.922100	CCNP001684	1
127	1	0.115461	508803.512400	508803.507100	508931.828300	508931.823000	2	1	0.443756	509932.742800	509932.738500	510379.723900	510379.720600	CCNP001684	1
128	1	0.329311	512883.539500	512883.534600	513227.990200	513227.987000	2	1	0.242866	514228.941400	514228.936200	514475.347700	514475.344500	CCNP001684	0
129	1	0.076851	516978.733500	516978.728500	517059.445800	517059.442500	2	1	0.212366	518060.356100	518060.351500	518275.976900	518275.973600	CCNP001684	0
130	1	0.202603	520780.006300	520779.982800	520987.464900	520987.461700	2	2	0.027815	521988.407800	521988.403000	522019.595500	522019.592200	CCNP001684	0
131	2	0.071800	524523.561100	524523.555900	524603.958300	524603.955000	3	1	0.155095	525604.975700	525604.971100	525763.485100	525763.482100	CCNP001684	0
132	2	0.104646	528268.442100	528268.436700	528387.276800	528387.273200	3	1	0.132236	529388.132600	529388.128100	529523.806800	529523.803500	CCNP001684	1
133	2	0.082870	532027.228500	532027.223500	532115.846800	532115.842600	3	1	0.091929	533116.782000	533116.777200	533211.929700	533211.926500	CCNP001684	1
134	2	0.641000	536759.920400	536759.903600	537403.905100	537403.901900	3	1	0.211274	538404.797400	538404.792600	538619.550300	538619.547200	CCNP001684	0
135	2	0.127659	541122.920800	541122.915900	541260.013900	541260.010600	3	2	0.219238	542260.913400	542260.908600	542483.583700	542483.580400	CCNP001684	0
136	2	0.213159	544986.909800	544986.904800	545211.921200	545211.918000	3	1	0.355165	546212.895900	546212.891300	546571.544000	546571.540700	CCNP001684	1
137	1	0.129650	549075.152800	549075.147800	549211.932300	549211.929100	3	1	0.155493	550212.827000	550212.822000	550371.832700	550371.829300	CCNP001684	1
138	2	0.048633	552875.199300	552875.194000	552931.792900	552931.788600	2	1	0.148102	553932.702700	553932.698100	554084.110000	554084.106600	CCNP001684	0
139	2	0.212619	556587.493200	556587.488300	556811.396500	556811.393100	2	1	0.036273	557812.315500	557812.311000	557852.091500	557852.087400	CCNP001684	0
140	2	0.141208	560355.545700	560355.540800	560507.449300	560507.445000	3	1	0.523809	561508.284600	561508.279900	562035.437500	562035.434200	CCNP001684	1
141	2	0.030380	564538.868000	564538.863100	564579.371900	564579.368500	3	1	0.355519	565580.316600	565580.312000	565939.406200	565939.403100	CCNP001684	1
142	2	0.403125	568442.809300	568442.804100	568852.210900	568852.207400	2	2	0.595574	569853.095600	569853.090900	570452.095500	570452.071000	CCNP001684	0
143	2	0.101589	572955.495200	572955.490000	573067.340700	573067.337500	2	2	0.443890	574068.207500	574068.202900	574515.420700	574515.417300	CCNP001684	0
144	2	0.298697	577018.832500	577018.827600	577331.588100	577331.583300	3	1	0.378895	578332.482500	578332.477800	578715.186400	578715.182400	CCNP001684	1
145	2	0.210725	581218.603400	581218.598200	581443.328300	581443.324800	3	1	0.523159	582444.291800	582444.287100	582971.518100	582971.513900	CCNP001684	1
146	2	0.329437	585474.827400	585474.822500	585811.792700	585811.789400	3	1	0.339195	586812.683700	586812.679300	587155.425500	587155.422400	CCNP001684	1
147	2	0.193596	589658.828500	589658.823200	589859.244300	589859.241200	3	1	0.180183	590860.197000	590860.192200	591043.805700	591043.802400	CCNP001684	1
148	2	0.356259	593547.234200	593547.229200	593907.842500	593907.839200	2	1	0.195812	594908.743400	594908.738700	595107.881600	595107.878300	CCNP001684	0
149	2	0.179480	597611.452200	597611.447300	597795.586400	597795.582300	3	1	0.491855	598796.518600	598796.513900	599291.830700	599291.827200	CCNP001684	0
150	2	0.068440	601795.112100	601795.103100	601867.584800	601867.581600	3	1	0.483816	602868.541000	602868.536600	603355.685600	603355.682300	CCNP001684	0
151	2	0.217915	605859.026700	605859.021500	606083.573000	606083.569800	3	2	0.211834	607084.465600	607084.460800	607299.641300	607299.638100	CCNP001684	1
152	2	0.195356	609803.216500	609803.211400	610011.744800	610011.740600	3	2	0.323283	611012.692800	611012.687800	611339.405600	611339.402300	CCNP001684	0
153	1	0.331178	613843.249900	613843.244600	614179.920800	614179.917500	2	2	0.219789	615180.748500	615180.743800	615403.971800	615403.968500	CCNP001684	0
154	1	0.184191	617907.277600	617907.272500	618100.012800	618100.009600	2	1	0.251250	619100.924600	619100.919700	619355.594800	619355.591500	CCNP001684	0
155	2	0.058210	621859.046100	621859.041200	621923.747200	621923.743900	3	2	0.123769	622924.673400	622924.668800	623051.814100	623051.810700	CCNP001684	1
156	2	0.133680	625555.212800	625555.207700	625699.520600	625699.517500	3	2	0.195919	626700.437800	626700.433100	626899.603100	626899.599900	CCNP001684	0
157	2	0.155868	629403.006300	629403.001400	629571.419200	629571.416000	3	2	0.084324	630572.309100	630572.304300	630659.911300	630659.907900	CCNP001684	0
158	2	0.371470	633163.631200	633163.626000	633539.617900	633539.614700	3	1	0.141249	634540.601600	634540.597000	634685.141800	634685.138400	CCNP001684	0
159	1	0.340135	637188.596700	637188.591600	637539.380900	637539.377800	2	2	0.163251	638540.336600	638540.332200	638707.470100	638707.465800	CCNP001684	0
160	2	0.108207	641211.008700	641210.999700	641323.830000	641323.826800	3	1	0.051612	642324.718500	642324.714100	642379.714100	642379.710700	CCNP001684	0
161	2	0.136574	644883.296000	644883.290800	645035.659800	645035.656600	2	1	0.594923	646036.507500	646036.503000	646635.184700	646635.181300	CCNP001684	0
162	2	0.342681	649138.795600	649138.789400	649491.494300	649491.491200	2	2	0.188253	650492.443200	650492.438400	650684.013100	650684.009800	CCNP001684	1
163	2	0.212630	653187.405300	653187.400200	653411.573000	653411.569700	3	2	0.155288	654412.463800	654412.459200	654571.360200	654571.357100	CCNP001684	0
164	2	0.217170	657074.700400	657074.695600	657299.440800	657299.437400	2	2	0.427703	658300.402100	658300.397600	658731.543100	658731.538900	CCNP001684	1
165	1	0.098619	661235.481600	661235.476400	661347.816800	661347.813500	2	2	0.298583	662348.960300	662348.954900	662651.387700	662651.384500	CCNP001684	0
166	1	0.190187	665154.857600	665154.852500	665355.751400	665355.748300	2	2	0.266647	666356.675500	666356.670800	666627.323900	666627.319700	CCNP001684	1
167	1	0.204381	669130.765100	669130.760300	669339.573000	669339.569800	3	2	0.122703	670340.721800	670340.716500	670467.717300	670467.713200	CCNP001684	0
168	1	0.149830	672971.223900	672971.219100	673132.092400	673132.088900	2	2	0.690992	674133.256100	674133.251300	674827.380200	674827.376900	CCNP001684	0
169	1	0.380638	677330.839000	677330.834000	677715.627200	677715.623900	2	2	0.443648	678716.515300	678716.510800	679163.619700	679163.616400	CCNP001684	1
170	1	0.305407	681667.174200	681667.169200	681987.794400	681987.791100	2	2	0.307841	682988.665200	682988.660300	683299.863400	683299.860200	CCNP001684	1
171	1	0.187910	685803.296900	685803.291900	686003.462400	686003.459200	2	2	0.267823	687004.364300	687004.359900	687275.514900	687275.511600	CCNP001684	1
172	1	0.340131	689779.074500	689779.069300	690123.524800	690123.521700	2	2	0.476156	691124.478000	691124.473500	691603.903100	691603.899700	CCNP001684	0
173	1	0.007964	694107.442700	694107.437800	694123.629000	694123.625700	2	2	0.148084	695124.575600	695124.571000	695276.120800	695276.117500	CCNP001684	1
174	1	0.212131	697779.534700	697779.529900	697995.551600	697995.548400	2	2	0.051646	698996.466100	698996.461300	699051.545600	699051.542400	CCNP001684	1
175	1	0.148897	701554.989900	701554.984800	701715.437800	701715.433600	3	2	0.131683	702716.380200	702716.375600	702851.450700	702851.447500	CCNP001684	0
176	1	0.389788	705355.116000	705355.110600	705755.561800	705755.558800	2	2	0.547402	706756.550500	706756.545900	707307.289900	707307.286400	CCNP001684	1
177	1	0.163227	709810.470000	709810.465200	709979.948900	709979.932100	2	2	0.410522	710980.848600	710980.843900	711395.380300	711395.376500	CCNP001684	1
178	1	0.296126	713899.113000	713899.107700	714211.734300	714211.730800	2	2	0.362883	715212.640800	715212.636200	715579.648600	715579.644200	CCNP001684	1
179	1	0.080800	718083.171100	718083.166100	718179.942400	718179.939100	3	1	0.387236	719180.880000	719180.875300	719571.498600	719571.495400	CCNP001684	0
180	1	0.201136	722075.061300	722075.056200	722283.778700	722283.775400	2	2	0.570819	723284.711400	723284.706800	723859.408800	723859.405300	CCNP001684	1
181	1	0.212811	726362.821200	726362.816200	726579.657900	726579.654600	3	1	0.587596	727580.572200	727580.567300	728171.543800	728171.540600	CCNP001684	1
182	1	0.192930	730674.867500	730674.862600	730875.589700	730875.586700	2	2	0.292167	731876.475300	731876.470400	732172.024100	732172.020700	CCNP001684	1
183	1	0.240689	734675.549700	734675.544500	734923.404100	734923.400200	3	1	0.331712	735924.270700	735924.266200	736259.284100	736259.280600	CCNP001684	1
184	1	0.220036	738762.682900	738762.677600	738987.627400	738987.622700	3	1	0.387658	739988.487400	739988.482900	740379.568900	740379.565700	CCNP001684	1
185	1	0.191989	742883.099200	742883.093900	743091.437700	743091.434200	2	1	0.171795	744092.320400	744092.315700	744267.501100	744267.497900	CCNP001684	0
186	2	0.053072	746771.090900	746771.085400	746835.542300	746835.539000	3	1	0.267811	747836.545600	747836.540400	748107.648900	748107.645800	CCNP001684	1
187	2	0.187093	750611.047200	750611.042300	750803.325400	750803.321600	3	1	0.347562	751804.290100	751804.285200	752155.403600	752155.400100	CCNP001684	0
188	1	0.209916	754658.853600	754658.848600	754875.612700	754875.609600	2	2	0.283679	755876.485000	755876.480400	756163.488600	756163.485500	CCNP001684	1
189	1	0.217366	758667.339800	758667.334600	758899.729700	758899.726300	2	2	0.307453	759900.631700	759900.627100	760211.344100	760211.341000	CCNP001684	1
190	1	0.308924	762715.119500	762715.109800	763027.263900	763027.260700	2	1	0.676181	764028.191600	764028.187100	764707.656100	764707.652300	CCNP001684	1
191	1	0.436294	767211.068200	767211.063100	767651.895800	767651.892500	3	1	0.531860	768652.795100	768652.790200	769188.033500	769188.030200	CCNP001684	0
192	1	0.208616	771691.405600	771691.400800	771907.900100	771907.896800	2	2	0.387280	772908.818400	772908.814000	773299.492900	773299.489500	CCNP001684	0
193	1	0.147972	775802.934200	775802.928600	775963.851600	775963.848300	3	2	0.763521	776964.732400	776964.727600	777731.528400	777731.511700	CCNP001684	1
194	2	0.234559	780234.945200	780234.940100	780483.706400	780483.703000	2	1	0.602805	781484.623700	781484.619000	782091.383200	782091.378800	CCNP001684	0
195	2	0.212876	784594.694100	784594.689300	784811.829600	784811.826100	2	2	0.235329	785812.729300	785812.724900	786051.613900	786051.610400	CCNP001684	1
196	1	0.206012	788555.048500	788555.043300	788771.750300	788771.747000	2	2	0.347486	789772.668000	789772.663400	790123.512100	790123.508300	CCNP001684	1
197	1	0.187412	792627.036500	792627.028200	792819.999300	792819.996000	2	2	0.235229	793821.007300	793821.001100	794059.655700	794059.652600	CCNP001684	1
198	1	0.131074	796563.065400	796563.059900	796699.469600	796699.466400	3	2	0.219002	797700.359800	797700.355200	797923.255400	797923.251900	CCNP001684	1
199	1	0.154810	800426.641600	800426.636500	800587.434300	800587.431200	2	2	0.235229	801588.304700	801588.300200	801827.423000	801827.419500	CCNP001684	0
200	2	0.259199	804331.164300	804331.159300	804595.784900	804595.780800	3	2	0.306773	805596.711300	805596.706700	805907.601200	805907.596900	CCNP001684	0